condition,session,block,coherence,stim,response,rt,subject,intensity,stimulus,trial
Neutral,1,1,0.6,1,1,0.319,1,0.6,1,1
Neutral,1,1,0,1,0,0.433,1,0,1,2
Neutral,1,1,0,1,0,0.5,1,0,1,3
Neutral,1,1,0.4,-1,0,0.267,1,0.4,0,4
Neutral,1,1,0.4,-1,0,0.317,1,0.4,0,5
Neutral,1,1,0.1,-1,1,0.317,1,0.1,0,6
Neutral,1,1,0.2,-1,0,0.3,1,0.2,0,7
Neutral,1,1,0.6,-1,0,0.334,1,0.6,0,8
Neutral,1,1,0.4,1,1,0.317,1,0.4,1,9
Neutral,1,1,0.05,1,1,0.333,1,0.05,1,10
Neutral,1,1,0.2,1,0,0.267,1,0.2,1,11
Neutral,1,1,0,1,1,0.267,1,0,1,12
Neutral,1,1,0.6,-1,0,0.2,1,0.6,0,13
Neutral,1,1,0.05,1,1,0.35,1,0.05,1,14
Neutral,1,1,0.2,-1,0,0.3,1,0.2,0,15
Neutral,1,1,0.05,1,1,0.317,1,0.05,1,16
Neutral,1,1,0.05,1,0,0.333,1,0.05,1,17
Neutral,1,1,0.1,-1,1,0.35,1,0.1,0,18
Neutral,1,1,0.2,1,1,0.3,1,0.2,1,19
Neutral,1,1,0.2,-1,0,0.35,1,0.2,0,20
Neutral,1,1,0.1,1,1,0.4,1,0.1,1,21
Neutral,1,1,0.6,-1,0,0.167,1,0.6,0,22
Neutral,1,1,0.1,1,1,0.317,1,0.1,1,23
Neutral,1,1,0.4,-1,0,0.25,1,0.4,0,24
Neutral,1,1,0,1,1,0.433,1,0,1,25
Neutral,1,1,0.2,-1,1,0.217,1,0.2,0,26
Neutral,1,1,0.6,1,1,0.25,1,0.6,1,27
Neutral,1,1,0.4,1,1,0.267,1,0.4,1,28
Neutral,1,1,0.05,1,1,0.45,1,0.05,1,29
Neutral,1,1,0.2,-1,0,0.234,1,0.2,0,30
Neutral,1,1,0,1,1,0.334,1,0,1,31
Neutral,1,1,0.6,1,1,0.334,1,0.6,1,32
Neutral,1,1,0.6,-1,0,0.217,1,0.6,0,33
Neutral,1,1,0.05,-1,0,0.3,1,0.05,0,34
Neutral,1,1,0.05,1,1,0.117,1,0.05,1,35
Neutral,1,1,0.4,-1,0,0.317,1,0.4,0,36
Neutral,1,1,0.1,-1,1,0.333,1,0.1,0,37
Neutral,1,1,0,1,1,0.367,1,0,1,38
Neutral,1,1,0.1,-1,1,0.367,1,0.1,0,39
Neutral,1,1,0,1,1,0.267,1,0,1,40
Neutral,1,1,0.1,1,1,0.333,1,0.1,1,41
Neutral,1,1,0.6,-1,0,0.25,1,0.6,0,42
Neutral,1,1,0.4,-1,0,0.217,1,0.4,0,43
Neutral,1,1,0.05,1,1,0.367,1,0.05,1,44
Neutral,1,1,0.1,-1,0,0.15,1,0.1,0,45
Neutral,1,1,0.4,-1,0,0.117,1,0.4,0,46
Neutral,1,1,0.2,1,0,0.317,1,0.2,1,47
Neutral,1,1,0.6,1,1,0.0836,1,0.6,1,48
Neutral,1,1,0.05,1,1,0.317,1,0.05,1,49
Neutral,1,1,0,1,1,0.317,1,0,1,50
Neutral,1,1,0.4,-1,0,0.1,1,0.4,0,51
Neutral,1,1,0.1,1,1,0.234,1,0.1,1,52
Neutral,1,1,0.6,-1,0,0.0836,1,0.6,0,53
Neutral,1,1,0,-1,1,1.43,1,0,0,54
Neutral,1,1,0.1,1,1,0.267,1,0.1,1,55
Neutral,1,1,0.2,1,1,0.283,1,0.2,1,56
Neutral,1,1,0.05,1,0,0.333,1,0.05,1,57
Neutral,1,2,0.4,1,1,0.334,1,0.4,1,1
Neutral,1,2,0.05,-1,1,0.284,1,0.05,0,2
Neutral,1,2,0.1,-1,0,0.267,1,0.1,0,3
Neutral,1,2,0.6,1,1,0.233,1,0.6,1,4
Neutral,1,2,0.05,1,1,0.184,1,0.05,1,5
Neutral,1,2,0.2,1,1,0.383,1,0.2,1,6
Neutral,1,2,0.1,-1,0,0.35,1,0.1,0,7
Neutral,1,2,0.1,-1,0,0.283,1,0.1,0,8
Neutral,1,2,0.2,-1,0,0.317,1,0.2,0,9
Neutral,1,2,0,-1,0,0.334,1,0,0,10
Neutral,1,2,0.6,1,1,0.133,1,0.6,1,11
Neutral,1,2,0.2,-1,0,0.333,1,0.2,0,12
Neutral,1,2,0.6,-1,0,0.1,1,0.6,0,13
Neutral,1,2,0,1,0,0.433,1,0,1,14
Neutral,1,2,0.4,-1,0,0.15,1,0.4,0,15
Neutral,1,2,0.05,-1,1,0.417,1,0.05,0,16
Neutral,1,2,0.1,1,1,0.3,1,0.1,1,17
Neutral,1,2,0.2,-1,1,0.25,1,0.2,0,18
Neutral,1,2,0,-1,0,0.167,1,0,0,19
Neutral,1,2,0.05,1,1,0.467,1,0.05,1,20
Neutral,1,2,0.4,-1,0,0.15,1,0.4,0,21
Neutral,1,2,0,-1,0,0.217,1,0,0,22
Neutral,1,2,0.6,-1,0,0.0836,1,0.6,0,23
Neutral,1,2,0.05,-1,0,0.283,1,0.05,0,24
Neutral,1,2,0.6,1,1,0.117,1,0.6,1,25
Neutral,1,2,0.4,-1,0,0.167,1,0.4,0,26
Neutral,1,2,0.4,1,1,0.267,1,0.4,1,27
Neutral,1,2,0.2,-1,0,0.217,1,0.2,0,28
Neutral,1,2,0.2,-1,0,0.117,1,0.2,0,29
Neutral,1,2,0.05,1,1,0.184,1,0.05,1,30
Neutral,1,2,0,1,1,0.167,1,0,1,31
Neutral,1,2,0.1,-1,1,0.25,1,0.1,0,32
Neutral,1,2,0.4,1,1,0.317,1,0.4,1,33
Neutral,1,2,0.05,1,0,0.234,1,0.05,1,34
Neutral,1,2,0,-1,0,0.1,1,0,0,35
Neutral,1,2,0.1,1,0,0.483,1,0.1,1,36
Neutral,1,2,0.05,1,1,0.383,1,0.05,1,37
Neutral,1,2,0.4,1,1,0.0836,1,0.4,1,38
Neutral,1,2,0.6,-1,0,0.117,1,0.6,0,39
Neutral,1,2,0.6,-1,0,0.1,1,0.6,0,40
Neutral,1,2,0.05,-1,1,0.3,1,0.05,0,41
Neutral,1,2,0.1,1,1,0.217,1,0.1,1,42
Neutral,1,2,0.1,-1,1,0.383,1,0.1,0,43
Neutral,1,2,0.6,1,1,0.15,1,0.6,1,44
Neutral,1,2,0.4,-1,0,0.167,1,0.4,0,45
Neutral,1,2,0.1,-1,1,0.15,1,0.1,0,46
Neutral,1,2,0,1,1,0.184,1,0,1,47
Neutral,1,2,0.6,-1,0,0.1,1,0.6,0,48
Neutral,1,2,0.2,-1,1,0.517,1,0.2,0,49
Neutral,1,2,0.2,-1,1,0.2,1,0.2,0,50
Neutral,1,2,0,1,1,0.234,1,0,1,51
Neutral,1,2,0,1,1,0.15,1,0,1,52
Neutral,1,2,0.05,-1,1,0.0836,1,0.05,0,53
Neutral,1,2,0.2,1,1,0.25,1,0.2,1,54
Neutral,1,2,0.4,1,1,0.15,1,0.4,1,55
Neutral,1,2,0,1,1,0.983,1,0,1,56
Neutral,1,3,0.6,1,1,0.267,1,0.6,1,1
Neutral,1,3,0,-1,1,0.35,1,0,0,2
Neutral,1,3,0.4,1,1,0.217,1,0.4,1,3
Neutral,1,3,0.6,1,1,0.0336,1,0.6,1,4
Neutral,1,3,0.05,1,1,1.62,1,0.05,1,5
Neutral,1,3,0,-1,1,0.433,1,0,0,6
Neutral,1,3,0.1,1,1,0.0669,1,0.1,1,7
Neutral,1,3,0.4,1,1,0.167,1,0.4,1,8
Neutral,1,3,0.1,1,1,0.2,1,0.1,1,9
Neutral,1,3,0.1,-1,1,0.25,1,0.1,0,10
Neutral,1,3,0.1,-1,1,0.167,1,0.1,0,11
Neutral,1,3,0.05,1,1,0.15,1,0.05,1,12
Neutral,1,3,0.2,-1,1,0.234,1,0.2,0,13
Neutral,1,3,0,1,1,0.317,1,0,1,14
Neutral,1,3,0.2,1,1,0.284,1,0.2,1,15
Neutral,1,3,0.1,1,1,0.167,1,0.1,1,16
Neutral,1,3,0.4,1,1,0.0669,1,0.4,1,17
Neutral,1,3,0.05,1,1,0.217,1,0.05,1,18
Neutral,1,3,0,1,1,0.3,1,0,1,19
Neutral,1,3,0.05,-1,1,0.133,1,0.05,0,20
Neutral,1,3,0.05,-1,1,0.233,1,0.05,0,21
Neutral,1,3,0.4,1,1,0.184,1,0.4,1,22
Neutral,1,3,0.6,1,1,0.167,1,0.6,1,23
Neutral,1,3,0.05,-1,1,0.25,1,0.05,0,24
Neutral,1,3,0.1,-1,1,0.25,1,0.1,0,25
Neutral,1,3,0,-1,1,0.25,1,0,0,26
Neutral,1,3,0.05,-1,1,0.0836,1,0.05,0,27
Neutral,1,3,0,1,1,0.0836,1,0,1,28
Neutral,1,3,0.1,-1,1,0.234,1,0.1,0,29
Neutral,1,3,0.05,-1,1,0.234,1,0.05,0,30
Neutral,1,3,0,1,1,0.2,1,0,1,31
Neutral,1,3,0.05,1,1,0.0336,1,0.05,1,32
Neutral,1,3,0.2,1,1,0.184,1,0.2,1,33
Neutral,1,3,0.4,1,1,0.184,1,0.4,1,34
Neutral,1,3,0.6,1,1,0.184,1,0.6,1,35
Neutral,1,4,0,1,1,0.833,1,0,1,1
Neutral,1,4,0.2,1,1,0.284,1,0.2,1,2
Neutral,1,4,0.2,-1,0,0.267,1,0.2,0,3
Neutral,1,4,0.2,1,1,0.233,1,0.2,1,4
Neutral,1,4,0.05,1,1,0.35,1,0.05,1,5
Neutral,1,4,0,1,1,0.367,1,0,1,6
Neutral,1,4,0.6,-1,0,0.1,1,0.6,0,7
Neutral,1,4,0.05,-1,1,0.3,1,0.05,0,8
Neutral,1,4,0.2,-1,0,0.267,1,0.2,0,9
Neutral,1,4,0.4,-1,0,0.2,1,0.4,0,10
Neutral,1,4,0.1,-1,1,0.134,1,0.1,0,11
Neutral,1,4,0.2,-1,0,0.0836,1,0.2,0,12
Neutral,1,4,0.1,1,1,0.133,1,0.1,1,13
Neutral,1,4,0.1,-1,1,0.183,1,0.1,0,14
Neutral,1,4,0.2,-1,1,0.267,1,0.2,0,15
Neutral,1,4,0.05,1,1,0.2,1,0.05,1,16
Neutral,1,4,0.4,1,1,0.284,1,0.4,1,17
Neutral,1,4,0.1,-1,1,0.35,1,0.1,0,18
Neutral,1,4,0,1,1,0.267,1,0,1,19
Neutral,1,4,0.4,-1,0,0.25,1,0.4,0,20
Neutral,1,4,0.1,1,1,0.233,1,0.1,1,21
Neutral,1,4,0.2,-1,1,0.267,1,0.2,0,22
Neutral,1,4,0.6,1,1,0.2,1,0.6,1,23
Neutral,1,4,0.1,-1,0,0.283,1,0.1,0,24
Neutral,1,4,0,-1,1,0.234,1,0,0,25
Neutral,1,4,0.4,1,1,0.2,1,0.4,1,26
Neutral,1,4,0.05,1,1,0.267,1,0.05,1,27
Neutral,1,4,0.1,1,1,0.217,1,0.1,1,28
Neutral,1,4,0,-1,1,0.15,1,0,0,29
Neutral,1,4,0.4,1,1,0.284,1,0.4,1,30
Neutral,1,4,0.4,-1,0,0.367,1,0.4,0,31
Neutral,1,4,0.2,-1,1,0.983,1,0.2,0,32
Neutral,1,4,0.05,1,1,0.167,1,0.05,1,33
Neutral,1,4,0.05,-1,1,0.25,1,0.05,0,34
Neutral,1,4,0.6,-1,0,0.067,1,0.6,0,35
Neutral,1,4,0.1,-1,1,0.25,1,0.1,0,36
Neutral,1,4,0.05,1,1,0.25,1,0.05,1,37
Neutral,1,4,0.1,1,1,0.267,1,0.1,1,38
Neutral,1,4,0,1,1,0.267,1,0,1,39
Neutral,1,4,0.4,1,1,0.25,1,0.4,1,40
Neutral,1,4,0,-1,1,0.3,1,0,0,41
Neutral,1,4,0.6,-1,0,0.15,1,0.6,0,42
Neutral,1,4,0,-1,1,0.417,1,0,0,43
Neutral,1,4,0.6,-1,0,0.1,1,0.6,0,44
Neutral,1,4,0.6,1,1,0.0502,1,0.6,1,45
Neutral,1,4,0.2,1,1,0.183,1,0.2,1,46
Neutral,1,4,0,1,1,0.533,1,0,1,47
Neutral,1,4,0,-1,1,0.3,1,0,0,48
Neutral,1,4,0.1,-1,1,0.184,1,0.1,0,49
Neutral,1,4,0.2,-1,1,0.25,1,0.2,0,50
Neutral,1,4,0.05,1,1,0.217,1,0.05,1,51
Neutral,1,4,0.05,-1,1,0.183,1,0.05,0,52
Neutral,1,5,0.4,1,1,0.317,1,0.4,1,1
Neutral,1,5,0,1,1,0.267,1,0,1,2
Neutral,1,5,0.2,-1,0,0.134,1,0.2,0,3
Neutral,1,5,0.2,-1,0,0.134,1,0.2,0,4
Neutral,1,5,0.1,1,0,0.167,1,0.1,1,5
Neutral,1,5,0.4,-1,1,0.167,1,0.4,0,6
Neutral,1,5,0.1,1,1,0.167,1,0.1,1,7
Neutral,1,5,0.6,1,1,0.0502,1,0.6,1,8
Neutral,1,5,0.05,1,1,0.217,1,0.05,1,9
Neutral,1,5,0.6,1,1,0.1,1,0.6,1,10
Neutral,1,5,0.4,1,1,0.233,1,0.4,1,11
Neutral,1,5,0,-1,1,0.267,1,0,0,12
Neutral,1,5,0.6,1,1,0.184,1,0.6,1,13
Neutral,1,5,0,-1,1,0.15,1,0,0,14
Neutral,1,5,0.6,1,1,0.15,1,0.6,1,15
Neutral,1,5,0,1,1,0.233,1,0,1,16
Neutral,1,5,0,-1,0,0.467,1,0,0,17
Neutral,1,5,0.1,1,1,0.35,1,0.1,1,18
Neutral,1,5,0.1,-1,1,0.333,1,0.1,0,19
Neutral,1,5,0,-1,0,0.367,1,0,0,20
Neutral,1,5,0.05,-1,0,0.367,1,0.05,0,21
Neutral,1,5,0.4,1,1,0.25,1,0.4,1,22
Neutral,1,5,0.1,-1,1,0.3,1,0.1,0,23
Neutral,1,5,0.05,1,1,0.25,1,0.05,1,24
Neutral,1,5,0.6,-1,0,0.117,1,0.6,0,25
Neutral,1,5,0.6,1,1,0.15,1,0.6,1,26
Neutral,1,5,0.2,1,1,0.267,1,0.2,1,27
Neutral,1,5,0,-1,1,0.184,1,0,0,28
Neutral,1,5,0,-1,1,0.167,1,0,0,29
Neutral,1,5,0.2,1,1,0.183,1,0.2,1,30
Neutral,1,5,0.2,1,1,0.35,1,0.2,1,31
Neutral,1,5,0.05,-1,1,0.2,1,0.05,0,32
Neutral,1,5,0.2,1,1,0.283,1,0.2,1,33
Neutral,1,5,0.4,1,1,0.184,1,0.4,1,34
Neutral,1,5,0.1,-1,0,0.267,1,0.1,0,35
Neutral,1,5,0.2,-1,0,0.184,1,0.2,0,36
Neutral,1,5,0.05,-1,1,0.15,1,0.05,0,37
Neutral,1,5,0.1,-1,0,0.134,1,0.1,0,38
Neutral,1,5,0.05,-1,0,0.3,1,0.05,0,39
Neutral,1,5,0.05,-1,0,0.25,1,0.05,0,40
Neutral,1,5,0.6,-1,0,0.1,1,0.6,0,41
Neutral,1,5,0.4,-1,0,0.2,1,0.4,0,42
Neutral,1,5,0.4,-1,0,0.283,1,0.4,0,43
Neutral,1,5,0.4,1,1,0.15,1,0.4,1,44
Neutral,1,5,0.2,-1,0,0.2,1,0.2,0,45
Neutral,1,5,0.4,1,1,0.184,1,0.4,1,46
Neutral,1,5,0,1,1,0.267,1,0,1,47
Neutral,1,5,0.05,1,1,0.367,1,0.05,1,48
Neutral,1,5,0.4,-1,0,0.117,1,0.4,0,49
Neutral,1,5,0,1,1,0.267,1,0,1,50
Neutral,1,5,0.05,1,1,0.15,1,0.05,1,51
Neutral,1,5,0.2,-1,0,0.2,1,0.2,0,52
Neutral,1,5,0.6,-1,0,0.0836,1,0.6,0,53
Neutral,1,5,0.6,1,1,0.184,1,0.6,1,54
Neutral,1,5,0.6,1,1,0.167,1,0.6,1,55
Neutral,1,5,0.05,1,1,0.234,1,0.05,1,56
Neutral,1,5,0.2,1,1,0.233,1,0.2,1,57
Neutral,1,5,0.1,-1,1,0.167,1,0.1,0,58
Neutral,1,6,0.6,-1,0,0.283,1,0.6,0,1
Neutral,1,6,0.6,-1,0,0.1,1,0.6,0,2
Neutral,1,6,0.4,-1,0,0.134,1,0.4,0,3
Neutral,1,6,0.1,1,1,0.267,1,0.1,1,4
Neutral,1,6,0.05,-1,0,0.283,1,0.05,0,5
Neutral,1,6,0.2,1,1,0.284,1,0.2,1,6
Neutral,1,6,0.6,-1,0,0.134,1,0.6,0,7
Neutral,1,6,0.2,-1,0,0.25,1,0.2,0,8
Neutral,1,6,0,1,1,0.267,1,0,1,9
Neutral,1,6,0.05,1,1,0.25,1,0.05,1,10
Neutral,1,6,0.4,1,1,0.267,1,0.4,1,11
Neutral,1,6,0.2,-1,0,0.167,1,0.2,0,12
Neutral,1,6,0,1,1,0.217,1,0,1,13
Neutral,1,6,0.2,1,1,0.0836,1,0.2,1,14
Neutral,1,6,0,1,1,0.333,1,0,1,15
Neutral,1,6,0.05,1,1,0.3,1,0.05,1,16
Neutral,1,6,0.2,1,1,0.283,1,0.2,1,17
Neutral,1,6,0.05,-1,0,0.233,1,0.05,0,18
Neutral,1,6,0.05,1,0,0.3,1,0.05,1,19
Neutral,1,6,0.6,-1,0,0.234,1,0.6,0,20
Neutral,1,6,0,1,1,0.317,1,0,1,21
Neutral,1,6,0.6,-1,0,0.2,1,0.6,0,22
Neutral,1,6,0.4,1,1,0.2,1,0.4,1,23
Neutral,1,6,0,1,1,0.467,1,0,1,24
Neutral,1,6,0.2,1,1,0.283,1,0.2,1,25
Neutral,1,6,0,-1,1,0.25,1,0,0,26
Neutral,1,6,0.4,1,1,0.283,1,0.4,1,27
Neutral,1,6,0.05,1,1,0.283,1,0.05,1,28
Neutral,1,6,0.05,1,1,0.234,1,0.05,1,29
Neutral,1,6,0.2,1,1,0.267,1,0.2,1,30
Neutral,1,6,0.6,1,1,0.1,1,0.6,1,31
Neutral,1,6,0.6,1,1,0.184,1,0.6,1,32
Neutral,1,6,0.1,1,1,0.217,1,0.1,1,33
Neutral,1,6,0.05,1,1,0.15,1,0.05,1,34
Neutral,1,6,0.05,-1,1,0.267,1,0.05,0,35
Neutral,1,6,0.4,1,1,0.317,1,0.4,1,36
Neutral,1,6,0,-1,1,0.15,1,0,0,37
Neutral,1,6,0.1,-1,1,0.15,1,0.1,0,38
Neutral,1,6,0.1,1,1,0.134,1,0.1,1,39
Neutral,1,6,0.4,1,1,0.267,1,0.4,1,40
Neutral,1,6,0.1,-1,1,0.25,1,0.1,0,41
Neutral,1,6,0,-1,1,0.3,1,0,0,42
Neutral,1,6,0.4,1,1,0.183,1,0.4,1,43
Neutral,1,6,0.1,1,1,0.25,1,0.1,1,44
Neutral,1,6,0.1,-1,1,0.167,1,0.1,0,45
Neutral,1,6,0.1,1,1,0.25,1,0.1,1,46
Neutral,1,6,0,-1,1,0.0669,1,0,0,47
Neutral,1,6,0.4,1,1,0.0668,1,0.4,1,48
Neutral,1,6,0.05,1,1,0.15,1,0.05,1,49
Neutral,1,6,0.2,1,1,0.1,1,0.2,1,50
Neutral,1,7,0.4,1,1,0.367,1,0.4,1,1
Neutral,1,7,0,1,1,0.267,1,0,1,2
Neutral,1,7,0.1,-1,1,0.283,1,0.1,0,3
Neutral,1,7,0.05,-1,1,0.25,1,0.05,0,4
Neutral,1,7,0.6,1,1,0.233,1,0.6,1,5
Neutral,1,7,0.05,1,1,0.2,1,0.05,1,6
Neutral,1,7,0.1,-1,0,0.167,1,0.1,0,7
Neutral,1,7,0.2,1,1,0.25,1,0.2,1,8
Neutral,1,7,0.1,-1,0,0.0502,1,0.1,0,9
Neutral,1,7,0.05,1,1,0.117,1,0.05,1,10
Neutral,1,7,0,-1,1,0.134,1,0,0,11
Neutral,1,7,0,-1,1,0.167,1,0,0,12
Neutral,1,7,0.4,-1,0,0.1,1,0.4,0,13
Neutral,1,7,0,1,1,0.15,1,0,1,14
Neutral,1,7,0,-1,1,0.134,1,0,0,15
Neutral,1,7,0.1,-1,0,0.167,1,0.1,0,16
Neutral,1,7,0.6,-1,0,0.35,1,0.6,0,17
Neutral,1,7,0.4,-1,0,0.117,1,0.4,0,18
Neutral,1,7,0.4,1,1,0.15,1,0.4,1,19
Neutral,1,7,0.05,-1,1,0.233,1,0.05,0,20
Neutral,1,7,0.05,1,1,0.15,1,0.05,1,21
Neutral,1,7,0,-1,1,0.167,1,0,0,22
Neutral,1,7,0.4,1,1,0.2,1,0.4,1,23
Neutral,1,7,0,1,1,0.167,1,0,1,24
Neutral,1,7,0.2,1,1,0.133,1,0.2,1,25
Neutral,1,7,0.4,-1,0,0.0502,1,0.4,0,26
Neutral,1,7,0.05,1,1,0.267,1,0.05,1,27
Neutral,1,7,0.6,1,1,0.0669,1,0.6,1,28
Neutral,1,7,0.05,-1,1,0.25,1,0.05,0,29
Neutral,1,7,0.1,-1,0,0.15,1,0.1,0,30
Neutral,1,7,0.4,1,1,0.217,1,0.4,1,31
Neutral,1,7,0.2,-1,0,0.117,1,0.2,0,32
Neutral,1,7,0.1,-1,1,0.2,1,0.1,0,33
Neutral,1,7,0.05,1,1,0.2,1,0.05,1,34
Neutral,1,7,0.1,-1,0,1.67,1,0.1,0,35
Neutral,1,7,0.2,1,0,0.35,1,0.2,1,36
Neutral,1,7,0.1,-1,1,0.15,1,0.1,0,37
Neutral,1,7,0,1,1,0.233,1,0,1,38
Neutral,1,7,0.2,1,1,0.217,1,0.2,1,39
Neutral,1,7,0.05,-1,1,0.317,1,0.05,0,40
Neutral,1,7,0.2,1,1,0.117,1,0.2,1,41
Neutral,1,7,0.4,-1,0,0.1,1,0.4,0,42
Neutral,1,7,0.2,-1,0,0.15,1,0.2,0,43
Neutral,1,7,0.2,1,1,0.0835,1,0.2,1,44
Neutral,1,7,0.6,1,1,0.15,1,0.6,1,45
Neutral,1,7,0.2,-1,0,0.217,1,0.2,0,46
Neutral,1,7,0.6,1,1,0.267,1,0.6,1,47
Neutral,1,7,0.05,-1,0,0.3,1,0.05,0,48
Neutral,1,7,0.6,1,1,0.2,1,0.6,1,49
Neutral,1,7,0.1,1,1,0.267,1,0.1,1,50
Neutral,1,7,0,1,0,0.25,1,0,1,51
Neutral,1,7,0.6,-1,0,0.1,1,0.6,0,52
Neutral,1,7,0.4,1,1,0.15,1,0.4,1,53
Neutral,1,7,0.4,1,1,0.0836,1,0.4,1,54
Neutral,1,7,0.2,-1,0,0.1,1,0.2,0,55
Neutral,1,7,0.6,-1,0,0.167,1,0.6,0,56
Neutral,1,7,0,-1,1,0.25,1,0,0,57
Neutral,1,7,0.1,1,1,0.25,1,0.1,1,58
Neutral,1,8,0.05,1,1,2.05,1,0.05,1,1
Neutral,1,8,0,-1,1,0.283,1,0,0,2
Neutral,1,8,0.2,1,1,0.167,1,0.2,1,3
Neutral,1,8,0,1,1,0.15,1,0,1,4
Neutral,1,8,0.2,-1,0,0.1,1,0.2,0,5
Neutral,1,8,0.4,-1,0,0.117,1,0.4,0,6
Neutral,1,8,0,1,1,0.2,1,0,1,7
Neutral,1,8,0.4,-1,0,0.25,1,0.4,0,8
Neutral,1,8,0.1,1,1,0.383,1,0.1,1,9
Neutral,1,8,0.6,1,1,0.134,1,0.6,1,10
Neutral,1,8,0.1,-1,0,0.267,1,0.1,0,11
Neutral,1,8,0.05,1,1,0.184,1,0.05,1,12
Neutral,1,8,0.1,1,1,0.15,1,0.1,1,13
Neutral,1,8,0.4,-1,1,0.183,1,0.4,0,14
Neutral,1,8,0.1,1,1,0.184,1,0.1,1,15
Neutral,1,8,0.05,1,1,0.133,1,0.05,1,16
Neutral,1,8,0.6,-1,0,0.134,1,0.6,0,17
Neutral,1,8,0.4,1,1,0.15,1,0.4,1,18
Neutral,1,8,0.05,1,1,0.167,1,0.05,1,19
Neutral,1,8,0.2,1,1,0.15,1,0.2,1,20
Neutral,1,8,0.1,1,1,0.167,1,0.1,1,21
Neutral,1,8,0.1,1,1,0.217,1,0.1,1,22
Neutral,1,8,0.05,1,1,0.134,1,0.05,1,23
Neutral,1,8,0.05,-1,1,0.15,1,0.05,0,24
Neutral,1,8,0,-1,1,0.267,1,0,0,25
Neutral,1,8,0.2,1,1,0.25,1,0.2,1,26
Neutral,1,8,0.4,1,1,0.167,1,0.4,1,27
Neutral,1,8,0.4,-1,0,0.133,1,0.4,0,28
Neutral,1,8,0,-1,1,0.334,1,0,0,29
Neutral,1,8,0.4,-1,0,0.2,1,0.4,0,30
Neutral,1,8,0.2,-1,0,0.15,1,0.2,0,31
Neutral,1,8,0.1,1,1,0.217,1,0.1,1,32
Neutral,1,8,0,-1,1,0.167,1,0,0,33
Neutral,1,8,0.6,1,1,0.117,1,0.6,1,34
Neutral,1,8,0.05,1,0,0.234,1,0.05,1,35
Neutral,1,8,0.2,1,1,0.15,1,0.2,1,36
Neutral,1,8,0.2,-1,0,0.2,1,0.2,0,37
Neutral,1,8,0.4,1,1,0.184,1,0.4,1,38
Neutral,1,8,0.6,-1,0,0.1,1,0.6,0,39
Neutral,1,8,0.6,-1,0,0.233,1,0.6,0,40
Neutral,1,8,0.4,1,1,0.183,1,0.4,1,41
Neutral,1,8,0.2,-1,1,0.184,1,0.2,0,42
Neutral,1,8,0.1,-1,1,1.05,1,0.1,0,43
Neutral,1,8,0.05,1,1,0.184,1,0.05,1,44
Neutral,1,8,0.1,1,1,0.134,1,0.1,1,45
Neutral,1,8,0.1,-1,1,0.217,1,0.1,0,46
Neutral,1,8,0.6,-1,0,0.0835,1,0.6,0,47
Neutral,1,8,0.2,-1,1,0.0836,1,0.2,0,48
Neutral,1,8,0.05,1,1,0.2,1,0.05,1,49
Neutral,1,8,0.6,-1,0,0.117,1,0.6,0,50
Neutral,1,8,0.2,1,1,0.117,1,0.2,1,51
Neutral,1,8,0.05,-1,1,0.134,1,0.05,0,52
Neutral,1,8,0,-1,1,0.233,1,0,0,53
Neutral,1,8,0,1,1,0.2,1,0,1,54
Neutral,1,8,0.6,1,1,0.1,1,0.6,1,55
Neutral,1,8,0.6,1,1,0.184,1,0.6,1,56
Neutral,1,9,0.4,-1,0,0.0836,1,0.4,0,1
Neutral,1,9,0.1,-1,1,0.317,1,0.1,0,2
Neutral,1,9,0.1,-1,1,0.217,1,0.1,0,3
Neutral,1,9,0,-1,1,0.233,1,0,0,4
Neutral,1,9,0,1,1,0.317,1,0,1,5
Neutral,1,9,0,-1,1,0.283,1,0,0,6
Neutral,1,9,0.1,-1,1,0.15,1,0.1,0,7
Neutral,1,9,0.1,1,1,0.2,1,0.1,1,8
Neutral,1,9,0.6,-1,0,0.15,1,0.6,0,9
Neutral,1,9,0,1,1,0.3,1,0,1,10
Neutral,1,9,0,1,1,0.184,1,0,1,11
Neutral,1,9,0.2,1,1,0.134,1,0.2,1,12
Neutral,1,9,0.05,-1,1,0.25,1,0.05,0,13
Neutral,1,9,0.2,-1,1,0.234,1,0.2,0,14
Neutral,1,9,0.4,1,0,0.55,1,0.4,1,15
Neutral,1,9,0.6,1,1,0.267,1,0.6,1,16
Neutral,1,9,0.6,1,1,0.167,1,0.6,1,17
Neutral,1,9,0.05,1,1,0.217,1,0.05,1,18
Neutral,1,9,0.6,-1,0,0.117,1,0.6,0,19
Neutral,1,9,0,1,1,0.367,1,0,1,20
Neutral,1,9,0.6,1,1,0.25,1,0.6,1,21
Neutral,1,9,0.05,-1,1,0.2,1,0.05,0,22
Neutral,1,9,0.1,1,1,0.217,1,0.1,1,23
Neutral,1,9,0.2,1,1,0.1,1,0.2,1,24
Neutral,1,9,0.05,-1,1,0.167,1,0.05,0,25
Neutral,1,9,0.6,-1,0,0.0835,1,0.6,0,26
Neutral,1,9,0.2,-1,0,0.25,1,0.2,0,27
Neutral,1,9,0.1,-1,1,0.267,1,0.1,0,28
Neutral,1,9,0.4,-1,1,0.167,1,0.4,0,29
Neutral,1,9,0.4,-1,0,0.1,1,0.4,0,30
Neutral,1,9,0,1,1,0.2,1,0,1,31
Neutral,1,9,0.4,1,1,0.2,1,0.4,1,32
Neutral,1,9,0,-1,1,0.217,1,0,0,33
Neutral,1,9,0.4,-1,0,0.267,1,0.4,0,34
Neutral,1,9,0.4,-1,0,0.067,1,0.4,0,35
Neutral,1,9,0.4,1,1,0.0669,1,0.4,1,36
Neutral,1,9,0.2,1,1,0.117,1,0.2,1,37
Neutral,1,9,0,1,1,0.167,1,0,1,38
Neutral,1,9,0.05,-1,1,0.35,1,0.05,0,39
Neutral,1,9,0.6,1,1,0.167,1,0.6,1,40
Neutral,1,9,0.1,-1,1,0.267,1,0.1,0,41
Neutral,1,9,0.05,-1,0,0.2,1,0.05,0,42
Neutral,1,9,0.4,-1,0,0.0502,1,0.4,0,43
Neutral,1,9,0.6,1,1,0.184,1,0.6,1,44
Neutral,1,9,0.4,-1,1,0.267,1,0.4,0,45
Neutral,1,9,0.1,1,1,0.333,1,0.1,1,46
Neutral,1,9,0.1,1,1,0.25,1,0.1,1,47
Neutral,1,9,0.1,-1,1,0.233,1,0.1,0,48
Neutral,1,9,0.2,-1,1,0.234,1,0.2,0,49
Neutral,1,9,0.05,1,1,0.117,1,0.05,1,50
Neutral,1,9,0.05,-1,1,0.134,1,0.05,0,51
Neutral,1,9,0.2,1,1,0.0669,1,0.2,1,52
Neutral,1,9,0.05,-1,1,0.183,1,0.05,0,53
Neutral,1,9,0,1,1,0.117,1,0,1,54
Neutral,1,9,0.2,1,1,0.1,1,0.2,1,55
Neutral,1,9,0.6,1,1,0.117,1,0.6,1,56
Neutral,1,10,0.4,-1,0,0.383,1,0.4,0,1
Neutral,1,10,0.1,-1,1,0.284,1,0.1,0,2
Neutral,1,10,0.2,-1,0,0.15,1,0.2,0,3
Neutral,1,10,0.4,-1,0,0.1,1,0.4,0,4
Neutral,1,10,0.6,1,1,0.067,1,0.6,1,5
Neutral,1,10,0.05,1,1,0.9,1,0.05,1,6
Neutral,1,10,0.1,-1,1,0.267,1,0.1,0,7
Neutral,1,10,0.6,1,1,0.167,1,0.6,1,8
Neutral,1,10,0.05,1,1,0.217,1,0.05,1,9
Neutral,1,10,0,-1,1,0.134,1,0,0,10
Neutral,1,10,0.6,-1,0,0.15,1,0.6,0,11
Neutral,1,10,0,-1,1,0.133,1,0,0,12
Neutral,1,10,0,1,1,0.0669,1,0,1,13
Neutral,1,10,0.4,1,1,0.0835,1,0.4,1,14
Neutral,1,10,0.05,1,1,0.184,1,0.05,1,15
Neutral,1,10,0.4,1,1,0.15,1,0.4,1,16
Neutral,1,10,0.1,-1,1,0.217,1,0.1,0,17
Neutral,1,10,0,-1,1,0.3,1,0,0,18
Neutral,1,10,0.1,1,1,0.233,1,0.1,1,19
Neutral,1,10,0.1,-1,1,0.2,1,0.1,0,20
Neutral,1,10,0.05,-1,1,0.167,1,0.05,0,21
Neutral,1,10,0.2,-1,1,0.167,1,0.2,0,22
Neutral,1,10,0.4,-1,0,0.183,1,0.4,0,23
Neutral,1,10,0.6,-1,0,0.25,1,0.6,0,24
Neutral,1,10,0.2,1,1,0.25,1,0.2,1,25
Neutral,1,10,0.2,1,1,0.167,1,0.2,1,26
Neutral,1,10,0.4,-1,0,0.0836,1,0.4,0,27
Neutral,1,10,0,1,1,0.25,1,0,1,28
Neutral,1,10,0.6,-1,0,0.117,1,0.6,0,29
Neutral,1,10,0,1,1,0.35,1,0,1,30
Neutral,1,10,0.4,1,1,0.1,1,0.4,1,31
Neutral,1,10,0.2,-1,0,0.0835,1,0.2,0,32
Neutral,1,10,0.6,1,1,0.0669,1,0.6,1,33
Neutral,1,10,0.05,1,1,0.15,1,0.05,1,34
Neutral,1,10,0.2,1,1,0.0503,1,0.2,1,35
Neutral,1,10,0.1,1,1,0.2,1,0.1,1,36
Neutral,1,10,0.2,-1,0,0.0669,1,0.2,0,37
Neutral,1,10,0.05,-1,1,0.134,1,0.05,0,38
Neutral,1,10,0.1,1,0,0.35,1,0.1,1,39
Neutral,1,10,0.2,-1,1,0.167,1,0.2,0,40
Neutral,1,10,0.05,-1,1,0.167,1,0.05,0,41
Neutral,1,10,0,-1,1,0.0836,1,0,0,42
Neutral,1,10,0.05,-1,1,0.0669,1,0.05,0,43
Neutral,1,10,0.6,1,1,0.134,1,0.6,1,44
Neutral,1,10,0.2,-1,0,0.15,1,0.2,0,45
Neutral,1,10,0.4,-1,0,0.0336,1,0.4,0,46
Neutral,1,10,0.2,-1,0,0.25,1,0.2,0,47
Neutral,1,10,0.05,-1,1,0.0835,1,0.05,0,48
Neutral,1,10,0,-1,1,0.117,1,0,0,49
Neutral,1,10,0.6,-1,0,0.1,1,0.6,0,50
Neutral,1,10,0,1,1,0.267,1,0,1,51
Neutral,4,1,0.2,-1,1,0.569,1,0.2,0,1
Neutral,4,1,0,-1,1,0.3,1,0,0,2
Neutral,4,1,0.6,-1,0,0.2,1,0.6,0,3
Neutral,4,1,0.1,-1,1,0.267,1,0.1,0,4
Neutral,4,1,0.2,-1,0,0.35,1,0.2,0,5
Neutral,4,1,0.6,-1,0,0.15,1,0.6,0,6
Neutral,4,1,0.4,-1,0,0.0836,1,0.4,0,7
Neutral,4,1,0.6,-1,0,0.0502,1,0.6,0,8
Neutral,4,1,0.2,1,1,0.267,1,0.2,1,9
Neutral,4,1,0.2,-1,0,0.916,1,0.2,0,10
Neutral,4,1,0.05,-1,1,0.85,1,0.05,0,11
Neutral,4,1,0.1,-1,1,0.267,1,0.1,0,12
Neutral,4,1,0,-1,1,0.25,1,0,0,13
Neutral,4,1,0.05,1,1,0.317,1,0.05,1,14
Neutral,4,1,0.6,-1,0,0.267,1,0.6,0,15
Neutral,4,1,0.4,1,1,0.3,1,0.4,1,16
Neutral,4,1,0.4,-1,0,0.35,1,0.4,0,17
Neutral,4,1,0,-1,0,0.25,1,0,0,18
Neutral,4,1,0.2,-1,1,0.267,1,0.2,0,19
Neutral,4,1,0.1,-1,0,0.284,1,0.1,0,20
Neutral,4,1,0.2,1,1,0.3,1,0.2,1,21
Neutral,4,1,0,-1,1,0.234,1,0,0,22
Neutral,4,1,0.05,1,1,0.25,1,0.05,1,23
Neutral,4,1,0.1,-1,1,0.3,1,0.1,0,24
Neutral,4,1,0.05,-1,1,0.317,1,0.05,0,25
Neutral,4,1,0.4,-1,0,0.2,1,0.4,0,26
Neutral,4,1,0.1,-1,1,0.283,1,0.1,0,27
Neutral,4,1,0.05,-1,1,0.3,1,0.05,0,28
Neutral,4,1,0,-1,1,0.3,1,0,0,29
Neutral,4,1,0.2,-1,0,0.217,1,0.2,0,30
Neutral,4,1,0,-1,1,0.25,1,0,0,31
Neutral,4,1,0.2,-1,1,0.183,1,0.2,0,32
Neutral,4,1,0.4,1,1,0.267,1,0.4,1,33
Neutral,4,1,0.4,1,1,0.2,1,0.4,1,34
Neutral,4,1,0.05,-1,1,0.133,1,0.05,0,35
Neutral,4,1,0,1,1,0.15,1,0,1,36
Neutral,4,1,0.2,-1,0,0.234,1,0.2,0,37
Neutral,4,1,0.6,1,1,0.133,1,0.6,1,38
Neutral,4,1,0.05,-1,1,0.0502,1,0.05,0,39
Neutral,4,1,0.6,-1,0,0.117,1,0.6,0,40
Neutral,4,1,0.05,1,1,0.217,1,0.05,1,41
Neutral,4,1,0.1,-1,1,0.267,1,0.1,0,42
Neutral,4,1,0.4,1,1,0.15,1,0.4,1,43
Neutral,4,1,0.6,1,1,0.183,1,0.6,1,44
Neutral,4,1,0.6,1,1,0.15,1,0.6,1,45
Neutral,4,1,0.05,1,1,0.25,1,0.05,1,46
Neutral,4,1,0.1,1,1,0.333,1,0.1,1,47
Neutral,4,1,0,1,1,0.184,1,0,1,48
Neutral,4,1,0.1,1,1,0.283,1,0.1,1,49
Neutral,4,1,0.2,1,1,0.167,1,0.2,1,50
Neutral,4,1,0.4,1,1,0.183,1,0.4,1,51
Neutral,4,1,0.1,-1,0,0.283,1,0.1,0,52
Neutral,4,1,0,1,1,0.184,1,0,1,53
Neutral,4,1,0,-1,1,0.15,1,0,0,54
Neutral,4,1,0.6,-1,0,0.267,1,0.6,0,55
Neutral,4,1,0.05,1,1,0.217,1,0.05,1,56
Neutral,4,1,0.6,-1,0,0.117,1,0.6,0,57
Neutral,4,1,0.4,1,1,0.15,1,0.4,1,58
Neutral,4,2,0.4,1,1,0.3,1,0.4,1,1
Neutral,4,2,0,1,1,0.234,1,0,1,2
Neutral,4,2,0.2,-1,0,0.284,1,0.2,0,3
Neutral,4,2,0.2,-1,0,0.267,1,0.2,0,4
Neutral,4,2,0.2,1,1,0.25,1,0.2,1,5
Neutral,4,2,0.4,1,1,0.15,1,0.4,1,6
Neutral,4,2,0.05,-1,1,0.15,1,0.05,0,7
Neutral,4,2,0.4,-1,0,0.317,1,0.4,0,8
Neutral,4,2,0.2,1,1,0.217,1,0.2,1,9
Neutral,4,2,0,1,1,0.184,1,0,1,10
Neutral,4,2,0.1,-1,1,0.217,1,0.1,0,11
Neutral,4,2,0.6,1,1,0.234,1,0.6,1,12
Neutral,4,2,0.4,1,1,0.167,1,0.4,1,13
Neutral,4,2,0.1,1,1,0.267,1,0.1,1,14
Neutral,4,2,0.1,1,0,0.267,1,0.1,1,15
Neutral,4,2,0.4,-1,0,0.1,1,0.4,0,16
Neutral,4,2,0.4,-1,0,0.217,1,0.4,0,17
Neutral,4,2,0.05,1,1,0.2,1,0.05,1,18
Neutral,4,2,0.2,-1,0,0.167,1,0.2,0,19
Neutral,4,2,0.4,-1,0,0.134,1,0.4,0,20
Neutral,4,2,0.1,-1,1,0.167,1,0.1,0,21
Neutral,4,2,0,1,1,0.234,1,0,1,22
Neutral,4,2,0.2,-1,1,0.233,1,0.2,0,23
Neutral,4,2,0.2,-1,0,0.267,1,0.2,0,24
Neutral,4,2,0.1,-1,0,0.234,1,0.1,0,25
Neutral,4,2,0.6,-1,0,0.234,1,0.6,0,26
Neutral,4,2,0.6,-1,0,0.1,1,0.6,0,27
Neutral,4,2,0.2,-1,1,0.234,1,0.2,0,28
Neutral,4,2,0,1,1,0.167,1,0,1,29
Neutral,4,2,0.2,1,1,0.217,1,0.2,1,30
Neutral,4,2,0.1,1,1,0.167,1,0.1,1,31
Neutral,4,2,0.05,1,1,0.267,1,0.05,1,32
Neutral,4,2,0.1,-1,1,0.217,1,0.1,0,33
Neutral,4,2,0.6,1,1,0.167,1,0.6,1,34
Neutral,4,2,0,1,1,0.183,1,0,1,35
Neutral,4,2,0.1,1,1,0.233,1,0.1,1,36
Neutral,4,2,0.4,1,1,0.25,1,0.4,1,37
Neutral,4,2,0.2,-1,0,0.25,1,0.2,0,38
Neutral,4,2,0.05,1,1,0.217,1,0.05,1,39
Neutral,4,2,0.6,-1,0,0.117,1,0.6,0,40
Neutral,4,2,0,-1,1,0.117,1,0,0,41
Neutral,4,2,0.4,-1,0,0.134,1,0.4,0,42
Neutral,4,2,0.05,1,1,0.2,1,0.05,1,43
Neutral,4,2,0,1,1,0.217,1,0,1,44
Neutral,4,2,0.05,1,0,0.3,1,0.05,1,45
Neutral,4,2,0.05,1,1,0.217,1,0.05,1,46
Neutral,4,2,0.4,-1,0,0.217,1,0.4,0,47
Neutral,4,2,0,1,1,0.217,1,0,1,48
Neutral,4,2,0.05,-1,0,0.267,1,0.05,0,49
Neutral,4,2,0.6,1,1,0.15,1,0.6,1,50
Neutral,4,2,0.6,-1,0,0.383,1,0.6,0,51
Neutral,4,2,0.05,-1,1,0.25,1,0.05,0,52
Neutral,4,2,0.6,-1,0,0.134,1,0.6,0,53
Neutral,4,2,0,-1,1,0.3,1,0,0,54
Neutral,4,2,0.6,1,1,0.317,1,0.6,1,55
Neutral,4,2,0.05,1,1,0.167,1,0.05,1,56
Neutral,4,2,0.1,1,1,0.184,1,0.1,1,57
Neutral,4,2,0.6,-1,0,0.15,1,0.6,0,58
Neutral,4,2,0.1,-1,1,0.217,1,0.1,0,59
Neutral,4,2,0,1,1,0.234,1,0,1,60
Neutral,4,3,0.4,1,1,0.417,1,0.4,1,1
Neutral,4,3,0.1,1,1,0.3,1,0.1,1,2
Neutral,4,3,0.6,1,1,0.533,1,0.6,1,3
Neutral,4,3,0,-1,1,0.35,1,0,0,4
Neutral,4,3,0,1,0,0.4,1,0,1,5
Neutral,4,3,0,1,1,0.3,1,0,1,6
Neutral,4,3,0.1,1,1,0.35,1,0.1,1,7
Neutral,4,3,0.4,-1,0,0.367,1,0.4,0,8
Neutral,4,3,0.05,-1,1,0.233,1,0.05,0,9
Neutral,4,3,0.05,1,1,0.283,1,0.05,1,10
Neutral,4,3,0.05,-1,1,0.417,1,0.05,0,11
Neutral,4,3,0.2,1,1,0.233,1,0.2,1,12
Neutral,4,3,0.4,-1,0,0.383,1,0.4,0,13
Neutral,4,3,0,-1,1,0.767,1,0,0,14
Neutral,4,3,0.6,-1,0,0.3,1,0.6,0,15
Neutral,4,3,0.2,1,1,0.317,1,0.2,1,16
Neutral,4,3,0.1,-1,1,0.483,1,0.1,0,17
Neutral,4,3,0.1,1,1,0.367,1,0.1,1,18
Neutral,4,3,0.2,1,1,0.167,1,0.2,1,19
Neutral,4,3,0.4,1,1,0.117,1,0.4,1,20
Neutral,4,3,0.6,-1,0,0.317,1,0.6,0,21
Neutral,4,3,0.2,1,1,0.1,1,0.2,1,22
Neutral,4,3,0.1,1,1,0.483,1,0.1,1,23
Neutral,4,3,0.2,1,1,0.3,1,0.2,1,24
Neutral,4,3,0.1,1,1,0.167,1,0.1,1,25
Neutral,4,3,0.2,1,1,0.25,1,0.2,1,26
Neutral,4,3,0.6,-1,0,0.317,1,0.6,0,27
Neutral,4,3,0.4,1,1,0.183,1,0.4,1,28
Neutral,4,3,0,1,1,0.25,1,0,1,29
Neutral,4,3,0.4,1,1,0.683,1,0.4,1,30
Neutral,4,3,0.4,1,1,0.283,1,0.4,1,31
Neutral,4,3,0.4,1,1,0.317,1,0.4,1,32
Neutral,4,3,0.6,-1,0,0.25,1,0.6,0,33
Neutral,4,3,0,1,1,0.267,1,0,1,34
Neutral,4,3,0.05,1,1,0.3,1,0.05,1,35
Neutral,4,3,0.6,1,1,0.35,1,0.6,1,36
Neutral,4,3,0.1,1,1,0.184,1,0.1,1,37
Neutral,4,3,0.05,1,1,0.167,1,0.05,1,38
Neutral,4,3,0.1,-1,1,0.25,1,0.1,0,39
Neutral,4,3,0.6,-1,0,0.1,1,0.6,0,40
Neutral,4,3,0.05,-1,1,0.267,1,0.05,0,41
Neutral,4,3,0,1,1,0.25,1,0,1,42
Neutral,4,3,0.2,1,1,0.217,1,0.2,1,43
Neutral,4,3,0.6,-1,0,0.367,1,0.6,0,44
Neutral,4,3,0.6,-1,0,0.217,1,0.6,0,45
Neutral,4,3,0.6,-1,0,0.117,1,0.6,0,46
Neutral,4,3,0.05,1,1,0.3,1,0.05,1,47
Neutral,4,3,0.05,-1,1,0.467,1,0.05,0,48
Neutral,4,3,0.2,1,1,0.234,1,0.2,1,49
Neutral,4,3,0.05,1,1,0.25,1,0.05,1,50
Neutral,4,3,0.1,-1,1,0.283,1,0.1,0,51
Neutral,4,3,0.2,1,1,0.383,1,0.2,1,52
Neutral,4,3,0,1,1,0.25,1,0,1,53
Neutral,4,3,0.2,-1,0,0.3,1,0.2,0,54
Neutral,4,3,0.4,-1,0,0.184,1,0.4,0,55
Neutral,4,3,0,-1,1,0.15,1,0,0,56
Neutral,4,3,0.05,-1,1,0.233,1,0.05,0,57
Neutral,4,3,0.1,-1,1,0.317,1,0.1,0,58
Neutral,4,3,0,-1,1,0.233,1,0,0,59
Neutral,4,3,0.4,1,1,0.167,1,0.4,1,60
Neutral,4,4,0.2,-1,0,0.3,1,0.2,0,1
Neutral,4,4,0,-1,1,0.383,1,0,0,2
Neutral,4,4,0.1,1,1,0.317,1,0.1,1,3
Neutral,4,4,0,1,1,0.25,1,0,1,4
Neutral,4,4,0.6,-1,0,0.283,1,0.6,0,5
Neutral,4,4,0.1,1,1,0.167,1,0.1,1,6
Neutral,4,4,0.4,-1,0,0.467,1,0.4,0,7
Neutral,4,4,0.4,-1,0,0.25,1,0.4,0,8
Neutral,4,4,0,1,1,0.25,1,0,1,9
Neutral,4,4,0.05,1,1,0.267,1,0.05,1,10
Neutral,4,4,0.6,-1,0,0.0835,1,0.6,0,11
Neutral,4,4,0.2,1,1,0.317,1,0.2,1,12
Neutral,4,4,0.05,-1,1,0.234,1,0.05,0,13
Neutral,4,4,0.4,-1,0,0.183,1,0.4,0,14
Neutral,4,4,0,-1,1,0.35,1,0,0,15
Neutral,4,4,0.2,1,1,0.184,1,0.2,1,16
Neutral,4,4,0.6,1,1,0.217,1,0.6,1,17
Neutral,4,4,0.05,1,1,0.317,1,0.05,1,18
Neutral,4,4,0.1,-1,1,0.25,1,0.1,0,19
Neutral,4,4,0.4,-1,0,0.35,1,0.4,0,20
Neutral,4,4,0.2,-1,0,0.217,1,0.2,0,21
Neutral,4,4,0.2,1,1,0.267,1,0.2,1,22
Neutral,4,4,0.05,-1,1,0.3,1,0.05,0,23
Neutral,4,4,0.6,1,1,0.317,1,0.6,1,24
Neutral,4,4,0.6,1,1,0.267,1,0.6,1,25
Neutral,4,4,0.6,-1,0,0.25,1,0.6,0,26
Neutral,4,4,0.1,1,1,0.25,1,0.1,1,27
Neutral,4,4,0.1,-1,1,0.2,1,0.1,0,28
Neutral,4,4,0.1,-1,1,0.217,1,0.1,0,29
Neutral,4,4,0.6,-1,0,0.134,1,0.6,0,30
Neutral,4,4,0.05,-1,1,0.3,1,0.05,0,31
Neutral,4,4,0.2,1,1,0.35,1,0.2,1,32
Neutral,4,4,0.6,-1,0,0.1,1,0.6,0,33
Neutral,4,4,0.4,-1,0,0.167,1,0.4,0,34
Neutral,4,4,0.05,-1,1,0.2,1,0.05,0,35
Neutral,4,4,0.2,1,1,0.184,1,0.2,1,36
Neutral,4,4,0,1,1,0.167,1,0,1,37
Neutral,4,4,0.4,1,1,0.1,1,0.4,1,38
Neutral,4,4,0.4,-1,0,0.167,1,0.4,0,39
Neutral,4,4,0,-1,1,0.167,1,0,0,40
Neutral,4,4,0.6,-1,0,0.233,1,0.6,0,41
Neutral,4,4,0.05,1,1,0.233,1,0.05,1,42
Neutral,4,4,0,1,1,0.167,1,0,1,43
Neutral,4,4,0.2,1,1,0.184,1,0.2,1,44
Neutral,4,4,0.1,-1,1,0.2,1,0.1,0,45
Neutral,4,4,0.05,1,1,0.1,1,0.05,1,46
Neutral,4,4,0,1,1,0.25,1,0,1,47
Neutral,4,4,0.05,-1,1,0.433,1,0.05,0,48
Neutral,4,4,0.4,1,1,0.267,1,0.4,1,49
Neutral,4,4,0.4,-1,0,0.234,1,0.4,0,50
Neutral,4,4,0.1,1,1,0.317,1,0.1,1,51
Neutral,4,4,0.1,1,1,0.25,1,0.1,1,52
Neutral,4,4,0.4,-1,0,0.317,1,0.4,0,53
Neutral,4,4,0.1,1,1,0.233,1,0.1,1,54
Neutral,4,4,0.05,1,1,0.283,1,0.05,1,55
Neutral,4,4,0,1,1,0.3,1,0,1,56
Neutral,4,4,0.2,-1,1,0.3,1,0.2,0,57
Neutral,4,4,0.6,1,1,0.167,1,0.6,1,58
Neutral,4,4,0.2,1,1,0.067,1,0.2,1,59
Neutral,4,4,0,1,1,0.25,1,0,1,60
Neutral,4,5,0.4,1,1,0.233,1,0.4,1,1
Neutral,4,5,0.4,-1,0,0.117,1,0.4,0,2
Neutral,4,5,0.05,1,1,0.3,1,0.05,1,3
Neutral,4,5,0.1,-1,0,0.234,1,0.1,0,4
Neutral,4,5,0.2,-1,1,0.217,1,0.2,0,5
Neutral,4,5,0.4,1,1,0.267,1,0.4,1,6
Neutral,4,5,0.6,-1,0,0.217,1,0.6,0,7
Neutral,4,5,0,-1,1,0.233,1,0,0,8
Neutral,4,5,0.4,1,1,0.1,1,0.4,1,9
Neutral,4,5,0.4,-1,0,0.133,1,0.4,0,10
Neutral,4,5,0.1,1,1,0.0835,1,0.1,1,11
Neutral,4,5,0.2,-1,0,0.233,1,0.2,0,12
Neutral,4,5,0,1,1,0.317,1,0,1,13
Neutral,4,5,0.1,1,1,0.233,1,0.1,1,14
Neutral,4,5,0,-1,1,0.367,1,0,0,15
Neutral,4,5,0.4,1,1,0.2,1,0.4,1,16
Neutral,4,5,0,-1,1,0.167,1,0,0,17
Neutral,4,5,0.6,1,1,0.317,1,0.6,1,18
Neutral,4,5,0.6,1,1,0.15,1,0.6,1,19
Neutral,4,5,0.4,1,1,0.0669,1,0.4,1,20
Neutral,4,5,0.05,-1,1,0.15,1,0.05,0,21
Neutral,4,5,0.2,1,1,0.184,1,0.2,1,22
Neutral,4,5,0.2,1,1,0.184,1,0.2,1,23
Neutral,4,5,0.6,-1,0,0.25,1,0.6,0,24
Neutral,4,5,0.2,1,1,0.267,1,0.2,1,25
Neutral,4,5,0.6,1,1,0.15,1,0.6,1,26
Neutral,4,5,0,-1,1,0.15,1,0,0,27
Neutral,4,5,0.05,-1,1,0.317,1,0.05,0,28
Neutral,4,5,0.2,1,0,0.217,1,0.2,1,29
Neutral,4,5,0,1,1,0.1,1,0,1,30
Neutral,4,5,0.6,1,1,0.184,1,0.6,1,31
Neutral,4,5,0.05,1,1,0.0502,1,0.05,1,32
Neutral,4,5,0.1,1,1,0.117,1,0.1,1,33
Neutral,4,5,0.1,-1,1,0.217,1,0.1,0,34
Neutral,4,5,0.2,-1,1,0.2,1,0.2,0,35
Neutral,4,5,0.2,-1,0,0.167,1,0.2,0,36
Neutral,4,5,0.2,1,1,0.117,1,0.2,1,37
Neutral,4,5,0.05,-1,1,0.217,1,0.05,0,38
Neutral,4,5,0.05,1,1,0.117,1,0.05,1,39
Neutral,4,5,0.1,1,1,0.4,1,0.1,1,40
Neutral,4,5,0,1,0,0.267,1,0,1,41
Neutral,4,5,0.05,1,1,0.217,1,0.05,1,42
Neutral,4,5,0.6,1,1,0.284,1,0.6,1,43
Neutral,4,5,0.4,1,1,0.217,1,0.4,1,44
Neutral,4,5,0,1,1,0.433,1,0,1,45
Neutral,4,5,0.6,1,1,0.25,1,0.6,1,46
Neutral,4,5,0.4,1,1,0.167,1,0.4,1,47
Neutral,4,5,0.1,1,1,0.183,1,0.1,1,48
Neutral,4,5,0.6,-1,0,0.184,1,0.6,0,49
Neutral,4,5,0,-1,1,0.15,1,0,0,50
Neutral,4,5,0.1,-1,1,0.234,1,0.1,0,51
Neutral,4,5,0.05,1,1,0.117,1,0.05,1,52
Neutral,4,5,0,1,1,0.0835,1,0,1,53
Neutral,4,5,0.2,1,1,0.0836,1,0.2,1,54
Neutral,4,5,0.1,-1,1,0.15,1,0.1,0,55
Neutral,4,5,0.6,-1,0,0.1,1,0.6,0,56
Neutral,4,5,0.05,-1,0,0.233,1,0.05,0,57
Neutral,4,5,0.05,1,1,0.167,1,0.05,1,58
Neutral,4,5,0.4,1,1,0.284,1,0.4,1,59
Neutral,4,5,0.1,-1,0,0.217,1,0.1,0,60
Neutral,4,6,0.4,-1,0,0.217,1,0.4,0,1
Neutral,4,6,0.1,1,1,0.317,1,0.1,1,2
Neutral,4,6,0.1,1,1,0.317,1,0.1,1,3
Neutral,4,6,0.2,1,1,0.0835,1,0.2,1,4
Neutral,4,6,0.6,1,1,0.117,1,0.6,1,5
Neutral,4,6,0,-1,1,0.134,1,0,0,6
Neutral,4,6,0,1,1,0.1,1,0,1,7
Neutral,4,6,0.1,-1,1,0.0502,1,0.1,0,8
Neutral,4,6,0.05,1,1,0.134,1,0.05,1,9
Neutral,4,6,0.2,-1,1,0.0502,1,0.2,0,10
Neutral,4,6,0,1,1,0.233,1,0,1,11
Neutral,4,6,0,1,1,0.134,1,0,1,12
Neutral,4,6,0.1,1,1,0.117,1,0.1,1,13
Neutral,4,6,0.1,-1,1,0.0836,1,0.1,0,14
Neutral,4,6,0.6,-1,1,0.167,1,0.6,0,15
Neutral,4,6,0.05,1,1,0.267,1,0.05,1,16
Neutral,4,6,0.2,-1,0,0.333,1,0.2,0,17
Neutral,4,6,0.05,1,1,0.2,1,0.05,1,18
Neutral,4,6,0.2,-1,0,0.15,1,0.2,0,19
Neutral,4,6,0.4,-1,0,0.134,1,0.4,0,20
Neutral,4,6,0.4,-1,0,0.0835,1,0.4,0,21
Neutral,4,6,0.05,1,1,0.217,1,0.05,1,22
Neutral,4,6,0.6,1,1,0.167,1,0.6,1,23
Neutral,4,6,0.05,1,1,0.2,1,0.05,1,24
Neutral,4,6,0.6,1,1,0.1,1,0.6,1,25
Neutral,4,6,0.1,1,1,0.134,1,0.1,1,26
Neutral,4,6,0.05,-1,1,0.117,1,0.05,0,27
Neutral,4,6,0.4,-1,0,0.0669,1,0.4,0,28
Neutral,4,6,0.2,1,1,0.0669,1,0.2,1,29
Neutral,4,6,0.05,1,1,0.0503,1,0.05,1,30
Neutral,4,6,0.05,1,1,0.184,1,0.05,1,31
Neutral,4,6,0,1,1,0.184,1,0,1,32
Neutral,4,6,0.2,1,1,0.1,1,0.2,1,33
Neutral,4,6,0.6,1,1,0.25,1,0.6,1,34
Neutral,4,6,0.05,-1,1,0.167,1,0.05,0,35
Neutral,4,6,0.2,-1,0,0.283,1,0.2,0,36
Neutral,4,6,0.1,-1,1,0.217,1,0.1,0,37
Neutral,4,6,0.1,1,1,0.167,1,0.1,1,38
Neutral,4,6,0.4,1,1,0.167,1,0.4,1,39
Neutral,4,6,0,-1,1,0.333,1,0,0,40
Neutral,4,6,0,-1,1,0.433,1,0,0,41
Neutral,4,6,0.4,-1,0,0.217,1,0.4,0,42
Neutral,4,6,0.2,-1,0,0.0836,1,0.2,0,43
Neutral,4,6,0.6,1,1,0.1,1,0.6,1,44
Neutral,4,6,0.2,-1,1,0.133,1,0.2,0,45
Neutral,4,6,0.4,1,1,0.217,1,0.4,1,46
Neutral,4,6,0.2,1,1,0.284,1,0.2,1,47
Neutral,4,6,0.05,1,1,0.233,1,0.05,1,48
Neutral,4,6,0.1,-1,0,0.35,1,0.1,0,49
Neutral,4,6,0.6,1,1,0.2,1,0.6,1,50
Neutral,4,6,0.1,1,1,0.283,1,0.1,1,51
Neutral,4,6,0,-1,1,0.167,1,0,0,52
Neutral,4,6,0.6,-1,0,0.35,1,0.6,0,53
Neutral,4,6,0.6,-1,0,0.117,1,0.6,0,54
Neutral,4,6,0.4,-1,0,0.233,1,0.4,0,55
Neutral,4,6,0.6,1,1,0.167,1,0.6,1,56
Neutral,4,6,0.4,-1,0,0.3,1,0.4,0,57
Neutral,4,6,0,-1,1,0.267,1,0,0,58
Neutral,4,6,0.4,-1,0,0.134,1,0.4,0,59
Neutral,4,6,0,1,1,0.167,1,0,1,60
Neutral,4,7,0.2,-1,0,0.45,1,0.2,0,1
Neutral,4,7,0.1,-1,1,0.2,1,0.1,0,2
Neutral,4,7,0.1,1,1,0.2,1,0.1,1,3
Neutral,4,7,0.1,-1,0,0.25,1,0.1,0,4
Neutral,4,7,0,1,1,0.55,1,0,1,5
Neutral,4,7,0.05,-1,1,0.35,1,0.05,0,6
Neutral,4,7,0.4,1,1,0.2,1,0.4,1,7
Neutral,4,7,0.1,1,1,0.217,1,0.1,1,8
Neutral,4,7,0.05,1,1,0.2,1,0.05,1,9
Neutral,4,7,0,1,1,0.1,1,0,1,10
Neutral,4,7,0.1,1,1,0.1,1,0.1,1,11
Neutral,4,7,0.4,-1,0,0.25,1,0.4,0,12
Neutral,4,7,0.1,-1,1,0.184,1,0.1,0,13
Neutral,4,7,0.2,-1,1,0.3,1,0.2,0,14
Neutral,4,7,0.6,1,1,0.0669,1,0.6,1,15
Neutral,4,7,0,-1,1,0.134,1,0,0,16
Neutral,4,7,0.05,-1,1,0.0502,1,0.05,0,17
Neutral,4,7,0.4,-1,0,0.1,1,0.4,0,18
Neutral,4,7,0.4,1,1,0.1,1,0.4,1,19
Neutral,4,7,0.2,1,1,0.15,1,0.2,1,20
Neutral,4,7,0.4,-1,0,0.1,1,0.4,0,21
Neutral,4,7,0.6,1,1,0.1,1,0.6,1,22
Neutral,4,7,0.2,1,1,0.167,1,0.2,1,23
Neutral,4,7,0,-1,1,0.0835,1,0,0,24
Neutral,4,7,0.05,-1,1,0.167,1,0.05,0,25
Neutral,4,7,0.05,-1,1,0.233,1,0.05,0,26
Neutral,4,7,0,-1,1,0.134,1,0,0,27
Neutral,4,7,0.6,1,1,0.167,1,0.6,1,28
Neutral,4,7,0.4,1,1,0.1,1,0.4,1,29
Neutral,4,7,0.6,-1,0,0.183,1,0.6,0,30
Neutral,4,7,0.2,-1,0,0.2,1,0.2,0,31
Neutral,4,7,0,-1,1,0.217,1,0,0,32
Neutral,4,7,0.05,-1,1,0.35,1,0.05,0,33
Neutral,4,7,0.05,-1,1,0.35,1,0.05,0,34
Neutral,4,7,0.2,-1,0,0.25,1,0.2,0,35
Neutral,4,7,0.05,1,1,0.167,1,0.05,1,36
Neutral,4,7,0.1,1,1,0.0668,1,0.1,1,37
Neutral,4,7,0,-1,1,0.15,1,0,0,38
Neutral,4,7,0.2,-1,1,0.167,1,0.2,0,39
Neutral,4,7,0.6,1,1,0.133,1,0.6,1,40
Neutral,4,7,0.2,-1,0,0.183,1,0.2,0,41
Neutral,4,7,0.4,1,1,0.167,1,0.4,1,42
Neutral,4,7,0.2,-1,0,0.317,1,0.2,0,43
Neutral,4,7,0,-1,1,0.3,1,0,0,44
Neutral,4,7,0.6,1,1,0.2,1,0.6,1,45
Neutral,4,7,0.05,1,1,0.267,1,0.05,1,46
Neutral,4,7,0.4,1,1,0.15,1,0.4,1,47
Neutral,4,7,0.6,1,1,0.233,1,0.6,1,48
Neutral,4,7,0.1,1,1,0.167,1,0.1,1,49
Neutral,4,7,0.6,-1,0,0.134,1,0.6,0,50
Neutral,4,7,0,1,1,0.2,1,0,1,51
Neutral,4,7,0.4,-1,0,0.15,1,0.4,0,52
Neutral,4,7,0.4,-1,0,0.134,1,0.4,0,53
Neutral,4,7,0,-1,1,0.217,1,0,0,54
Neutral,4,7,0.2,1,1,0.167,1,0.2,1,55
Neutral,4,7,0.6,-1,0,0.184,1,0.6,0,56
Neutral,4,7,0.1,1,1,0.134,1,0.1,1,57
Neutral,4,7,0.6,-1,0,0.0835,1,0.6,0,58
Neutral,4,8,0.4,1,1,0.25,1,0.4,1,1
Neutral,4,8,0.4,1,1,0.217,1,0.4,1,2
Neutral,4,8,0.2,1,1,0.25,1,0.2,1,3
Neutral,4,8,0.4,-1,0,0.183,1,0.4,0,4
Neutral,4,8,0,1,1,0.2,1,0,1,5
Neutral,4,8,0.05,1,1,0.117,1,0.05,1,6
Neutral,4,8,0.1,-1,1,0.2,1,0.1,0,7
Neutral,4,8,0.2,1,1,0.234,1,0.2,1,8
Neutral,4,8,0,-1,1,0.2,1,0,0,9
Neutral,4,8,0.2,1,1,0.183,1,0.2,1,10
Neutral,4,8,0,-1,1,0.15,1,0,0,11
Neutral,4,8,0.2,1,1,0.133,1,0.2,1,12
Neutral,4,8,0.4,-1,0,0.217,1,0.4,0,13
Neutral,4,8,0.05,-1,1,0.184,1,0.05,0,14
Neutral,4,8,0.05,-1,1,0.234,1,0.05,0,15
Neutral,4,8,0.05,-1,1,0.167,1,0.05,0,16
Neutral,4,8,0.1,1,1,0.1,1,0.1,1,17
Neutral,4,8,0.1,-1,1,0.217,1,0.1,0,18
Neutral,4,8,0.1,-1,0,0.217,1,0.1,0,19
Neutral,4,8,0,-1,1,0.134,1,0,0,20
Neutral,4,8,0,1,1,0.0836,1,0,1,21
Neutral,4,8,0.05,1,1,0.2,1,0.05,1,22
Neutral,4,8,0.6,1,1,0.117,1,0.6,1,23
Neutral,4,8,0.05,1,1,0.0835,1,0.05,1,24
Neutral,4,8,0.6,-1,0,0.0336,1,0.6,0,25
Neutral,4,8,0.05,-1,0,0.25,1,0.05,0,26
Neutral,4,8,0.4,1,1,0.267,1,0.4,1,27
Neutral,4,8,0.4,-1,0,0.25,1,0.4,0,28
Neutral,4,8,0.05,1,1,0.35,1,0.05,1,29
Neutral,4,8,0.1,-1,0,0.25,1,0.1,0,30
Neutral,4,8,0.6,-1,0,0.15,1,0.6,0,31
Neutral,4,8,0.6,1,1,0.117,1,0.6,1,32
Neutral,4,8,0.1,-1,1,0.233,1,0.1,0,33
Neutral,4,8,0.6,1,1,0.15,1,0.6,1,34
Neutral,4,8,0.2,-1,0,0.334,1,0.2,0,35
Neutral,4,8,0.1,-1,0,0.15,1,0.1,0,36
Neutral,4,8,0.05,-1,1,0.117,1,0.05,0,37
Neutral,4,8,0.6,-1,0,0.0836,1,0.6,0,38
Neutral,4,8,0.2,1,1,0.117,1,0.2,1,39
Neutral,4,8,0.4,1,1,0.15,1,0.4,1,40
Neutral,4,8,0,1,1,0.35,1,0,1,41
Neutral,4,8,0.6,1,1,0.15,1,0.6,1,42
Neutral,4,8,0,1,0,0.483,1,0,1,43
Neutral,4,8,0.4,-1,0,0.317,1,0.4,0,44
Neutral,4,8,0,-1,1,0.25,1,0,0,45
Neutral,4,8,0.05,1,1,0.267,1,0.05,1,46
Neutral,4,8,0,1,1,0.317,1,0,1,47
Neutral,4,8,0.2,-1,0,0.217,1,0.2,0,48
Neutral,4,8,0.1,-1,1,0.167,1,0.1,0,49
Neutral,4,8,0.4,-1,0,0.284,1,0.4,0,50
Neutral,4,8,0.2,-1,1,0.283,1,0.2,0,51
Neutral,4,8,0.4,-1,0,0.284,1,0.4,0,52
Neutral,4,8,0,1,1,0.167,1,0,1,53
Neutral,4,8,0.2,-1,0,0.1,1,0.2,0,54
Neutral,4,8,0.1,1,1,0.1,1,0.1,1,55
Neutral,4,8,0.2,1,1,0.167,1,0.2,1,56
Neutral,4,8,0.6,-1,0,0.167,1,0.6,0,57
Neutral,4,8,0.6,-1,0,0.0502,1,0.6,0,58
Neutral,4,9,0,1,1,0.333,1,0,1,1
Neutral,4,9,0.05,-1,1,0.133,1,0.05,0,2
Neutral,4,9,0.6,-1,0,0.167,1,0.6,0,3
Neutral,4,9,0.05,-1,1,0.233,1,0.05,0,4
Neutral,4,9,0.05,-1,1,0.25,1,0.05,0,5
Neutral,4,9,0.1,-1,1,0.2,1,0.1,0,6
Neutral,4,9,0.05,-1,1,0.167,1,0.05,0,7
Neutral,4,9,0.4,1,1,0.117,1,0.4,1,8
Neutral,4,9,0.1,-1,0,0.2,1,0.1,0,9
Neutral,4,9,0.05,-1,1,0.217,1,0.05,0,10
Neutral,4,9,0.2,1,1,0.167,1,0.2,1,11
Neutral,4,9,0.1,-1,1,0.134,1,0.1,0,12
Neutral,4,9,0,1,1,0.217,1,0,1,13
Neutral,4,9,0.6,-1,0,0.15,1,0.6,0,14
Neutral,4,9,0.2,1,1,0.184,1,0.2,1,15
Neutral,4,9,0.05,1,1,0.15,1,0.05,1,16
Neutral,4,9,0.1,1,1,0.134,1,0.1,1,17
Neutral,4,9,0.4,1,1,0.117,1,0.4,1,18
Neutral,4,9,0.05,1,1,0.25,1,0.05,1,19
Neutral,4,9,0.4,-1,0,0.134,1,0.4,0,20
Neutral,4,9,0.2,-1,1,0.333,1,0.2,0,21
Neutral,4,9,0.4,-1,0,0.383,1,0.4,0,22
Neutral,4,9,0,1,1,0.317,1,0,1,23
Neutral,4,9,0.4,-1,0,0.134,1,0.4,0,24
Neutral,4,9,0.6,-1,0,0.283,1,0.6,0,25
Neutral,4,9,0.2,-1,0,0.25,1,0.2,0,26
Neutral,4,9,0.4,1,1,0.35,1,0.4,1,27
Neutral,4,9,0.2,1,1,0.333,1,0.2,1,28
Neutral,4,9,0.6,-1,0,0.233,1,0.6,0,29
Neutral,4,9,0.2,-1,0,0.317,1,0.2,0,30
Neutral,4,9,0.4,1,1,0.367,1,0.4,1,31
Neutral,4,9,0,1,1,0.3,1,0,1,32
Neutral,4,9,0.05,-1,1,0.367,1,0.05,0,33
Neutral,4,9,0.6,1,1,0.317,1,0.6,1,34
Neutral,4,9,0,-1,1,0.4,1,0,0,35
Neutral,4,9,0,1,1,0.333,1,0,1,36
Neutral,4,9,0.2,1,1,0.317,1,0.2,1,37
Neutral,4,9,0.1,-1,0,0.317,1,0.1,0,38
Neutral,4,9,0.6,-1,0,1.05,1,0.6,0,39
Neutral,4,9,0.6,-1,0,0.25,1,0.6,0,40
Neutral,4,9,0.6,1,1,0.317,1,0.6,1,41
Neutral,4,9,0.05,1,1,0.267,1,0.05,1,42
Neutral,4,9,0,1,1,0.417,1,0,1,43
Neutral,4,9,0.1,1,1,0.3,1,0.1,1,44
Neutral,4,9,0,1,1,0.267,1,0,1,45
Neutral,4,9,0.2,-1,1,0.367,1,0.2,0,46
Neutral,4,9,0.6,1,1,0.267,1,0.6,1,47
Neutral,4,9,0.1,1,1,0.317,1,0.1,1,48
Neutral,4,9,0,-1,1,0.15,1,0,0,49
Neutral,4,9,0.1,-1,0,0.384,1,0.1,0,50
Neutral,4,9,0.05,1,1,0.45,1,0.05,1,51
Neutral,4,9,0.1,1,1,0.284,1,0.1,1,52
Neutral,4,9,0.2,1,1,0.517,1,0.2,1,53
Neutral,4,9,0.1,1,1,0.317,1,0.1,1,54
Neutral,4,9,0.2,-1,0,0.233,1,0.2,0,55
Neutral,4,9,0.4,-1,0,0.3,1,0.4,0,56
Neutral,4,9,0.4,-1,0,0.333,1,0.4,0,57
Neutral,4,9,0.4,1,1,0.25,1,0.4,1,58
Neutral,4,9,0.6,1,1,0.234,1,0.6,1,59
Neutral,4,9,0,1,1,0.167,1,0,1,60
Neutral,4,10,0.2,-1,0,0.567,1,0.2,0,1
Neutral,4,10,0,1,1,0.483,1,0,1,2
Neutral,4,10,0,-1,1,0.284,1,0,0,3
Neutral,4,10,0,-1,1,0.283,1,0,0,4
Neutral,4,10,0.6,1,1,0.333,1,0.6,1,5
Neutral,4,10,0.6,-1,0,0.3,1,0.6,0,6
Neutral,4,10,0.4,1,1,0.25,1,0.4,1,7
Neutral,4,10,0.4,1,1,0.283,1,0.4,1,8
Neutral,4,10,0.1,-1,1,0.233,1,0.1,0,9
Neutral,4,10,0.2,-1,1,0.15,1,0.2,0,10
Neutral,4,10,0.4,-1,0,0.167,1,0.4,0,11
Neutral,4,10,0.1,-1,1,0.2,1,0.1,0,12
Neutral,4,10,0.05,1,1,0.3,1,0.05,1,13
Neutral,4,10,0.6,-1,1,0.217,1,0.6,0,14
Neutral,4,10,0.05,1,1,0.25,1,0.05,1,15
Neutral,4,10,0.6,-1,0,0.317,1,0.6,0,16
Neutral,4,10,0.1,-1,1,0.25,1,0.1,0,17
Neutral,4,10,0.2,-1,1,0.367,1,0.2,0,18
Neutral,4,10,0.6,1,1,0.283,1,0.6,1,19
Neutral,4,10,0.05,-1,1,0.2,1,0.05,0,20
Neutral,4,10,0,-1,1,0.267,1,0,0,21
Neutral,4,10,0.4,1,1,0.183,1,0.4,1,22
Neutral,4,10,0,-1,1,0.433,1,0,0,23
Neutral,4,10,0.05,-1,0,0.283,1,0.05,0,24
Neutral,4,10,0.6,-1,0,0.283,1,0.6,0,25
Neutral,4,10,0.2,1,1,0.317,1,0.2,1,26
Neutral,4,10,0,-1,1,0.25,1,0,0,27
Neutral,4,10,0.2,1,1,0.233,1,0.2,1,28
Neutral,4,10,0.2,-1,0,0.233,1,0.2,0,29
Neutral,4,10,0.6,1,1,0.1,1,0.6,1,30
Neutral,4,10,0.05,1,1,0.167,1,0.05,1,31
Neutral,4,10,0.6,-1,0,0.217,1,0.6,0,32
Neutral,4,10,0.2,-1,1,0.233,1,0.2,0,33
Neutral,4,10,0.1,1,1,0.233,1,0.1,1,34
Neutral,4,10,0.05,-1,1,0.167,1,0.05,0,35
Neutral,4,10,0.2,-1,1,0.0836,1,0.2,0,36
Neutral,4,10,0.4,-1,0,0.25,1,0.4,0,37
Neutral,4,10,0.4,1,1,0.15,1,0.4,1,38
Neutral,4,10,0.1,1,1,0.2,1,0.1,1,39
Neutral,4,10,0.1,-1,0,0.15,1,0.1,0,40
Neutral,4,10,0.6,1,1,0.184,1,0.6,1,41
Neutral,4,10,0,1,1,0.317,1,0,1,42
Neutral,4,10,0,-1,1,0.317,1,0,0,43
Neutral,4,10,0.1,-1,1,0.333,1,0.1,0,44
Neutral,4,10,0.2,-1,0,0.283,1,0.2,0,45
Neutral,4,10,0.4,-1,0,0.167,1,0.4,0,46
Neutral,4,10,0,1,1,0.35,1,0,1,47
Neutral,4,10,0.4,1,1,0.134,1,0.4,1,48
Neutral,4,10,0.4,1,1,0.35,1,0.4,1,49
Neutral,4,10,0.1,-1,1,0.367,1,0.1,0,50
Neutral,4,10,0,-1,1,0.267,1,0,0,51
Neutral,4,10,0.05,1,1,0.4,1,0.05,1,52
Neutral,4,10,0.2,-1,0,0.267,1,0.2,0,53
Neutral,4,10,0.1,1,1,0.283,1,0.1,1,54
Neutral,4,10,0.4,-1,0,0.267,1,0.4,0,55
Neutral,4,10,0.6,1,1,0.25,1,0.6,1,56
Neutral,4,10,0.05,-1,1,0.3,1,0.05,0,57
Neutral,4,10,0.05,1,1,0.317,1,0.05,1,58
Neutral,4,10,0.05,-1,1,0.283,1,0.05,0,59
Neutral,1,1,0.1,1,1,0.755,2,0.1,1,1
Neutral,1,1,0,-1,0,0.817,2,0,0,2
Neutral,1,1,0.1,1,1,0.617,2,0.1,1,3
Neutral,1,1,0.4,1,1,0.717,2,0.4,1,4
Neutral,1,1,0.1,-1,0,0.65,2,0.1,0,5
Neutral,1,1,0.6,1,1,0.633,2,0.6,1,6
Neutral,1,1,0.6,1,1,0.633,2,0.6,1,7
Neutral,1,1,0.6,-1,0,0.55,2,0.6,0,8
Neutral,1,1,0.2,-1,0,0.633,2,0.2,0,9
Neutral,1,1,0.6,1,1,0.6,2,0.6,1,10
Neutral,1,1,0.05,-1,0,0.55,2,0.05,0,11
Neutral,1,1,0.4,-1,0,0.583,2,0.4,0,12
Neutral,1,1,0.05,-1,1,0.683,2,0.05,0,13
Neutral,1,1,0.6,-1,0,0.567,2,0.6,0,14
Neutral,1,1,0.05,1,0,0.767,2,0.05,1,15
Neutral,1,1,0.05,1,1,0.65,2,0.05,1,16
Neutral,1,1,0.2,-1,0,0.7,2,0.2,0,17
Neutral,1,1,0,-1,1,0.533,2,0,0,18
Neutral,1,1,0.1,-1,0,0.633,2,0.1,0,19
Neutral,1,1,0.6,-1,0,0.533,2,0.6,0,20
Neutral,1,1,0.6,-1,0,0.517,2,0.6,0,21
Neutral,1,1,0.05,1,0,0.667,2,0.05,1,22
Neutral,1,1,0.1,1,0,0.667,2,0.1,1,23
Neutral,1,1,0.05,1,0,0.85,2,0.05,1,24
Neutral,1,1,0.6,-1,0,0.567,2,0.6,0,25
Neutral,1,1,0,1,0,0.633,2,0,1,26
Neutral,1,1,0.4,1,1,0.483,2,0.4,1,27
Neutral,1,1,0,1,0,0.65,2,0,1,28
Neutral,1,1,0.2,-1,1,0.567,2,0.2,0,29
Neutral,1,1,0.05,-1,0,0.6,2,0.05,0,30
Neutral,1,1,0.05,-1,0,0.617,2,0.05,0,31
Neutral,1,1,0.4,-1,0,0.6,2,0.4,0,32
Neutral,1,1,0.2,-1,0,0.517,2,0.2,0,33
Neutral,1,1,0.2,-1,0,0.567,2,0.2,0,34
Neutral,1,1,0,-1,1,0.75,2,0,0,35
Neutral,1,1,0.1,1,0,0.817,2,0.1,1,36
Neutral,1,1,0,-1,0,0.667,2,0,0,37
Neutral,1,1,0.4,1,1,0.617,2,0.4,1,38
Neutral,1,1,0.2,1,0,0.517,2,0.2,1,39
Neutral,1,1,0,-1,1,0.9,2,0,0,40
Neutral,1,1,0.1,1,1,0.65,2,0.1,1,41
Neutral,1,1,0.2,-1,1,0.733,2,0.2,0,42
Neutral,1,1,0.05,-1,1,0.983,2,0.05,0,43
Neutral,1,1,0.2,1,0,0.667,2,0.2,1,44
Neutral,1,1,0.4,1,1,0.517,2,0.4,1,45
Neutral,1,1,0.6,-1,0,0.45,2,0.6,0,46
Neutral,1,1,0.4,1,1,0.417,2,0.4,1,47
Neutral,1,1,0.1,-1,0,0.433,2,0.1,0,48
Neutral,1,1,0.4,-1,0,0.35,2,0.4,0,49
Neutral,1,1,0.4,1,1,0.383,2,0.4,1,50
Neutral,1,1,0.05,1,1,0.467,2,0.05,1,51
Neutral,1,1,0.1,1,1,0.483,2,0.1,1,52
Neutral,1,1,0.2,-1,0,0.35,2,0.2,0,53
Neutral,1,1,0,-1,1,0.3,2,0,0,54
Neutral,1,1,0,-1,0,0.433,2,0,0,55
Neutral,1,1,0.4,-1,0,0.4,2,0.4,0,56
Neutral,1,1,0.6,1,1,0.35,2,0.6,1,57
Neutral,1,1,0.2,-1,0,0.383,2,0.2,0,58
Neutral,1,1,0,-1,1,0.35,2,0,0,59
Neutral,1,1,0.1,-1,0,0.483,2,0.1,0,60
Neutral,1,2,0,-1,1,0.883,2,0,0,1
Neutral,1,2,0.05,-1,0,0.7,2,0.05,0,2
Neutral,1,2,0.05,1,1,0.717,2,0.05,1,3
Neutral,1,2,0.05,1,0,0.65,2,0.05,1,4
Neutral,1,2,0.1,-1,0,0.667,2,0.1,0,5
Neutral,1,2,0.6,1,1,0.6,2,0.6,1,6
Neutral,1,2,0.1,1,1,0.567,2,0.1,1,7
Neutral,1,2,0.6,1,1,0.483,2,0.6,1,8
Neutral,1,2,0.05,-1,0,0.5,2,0.05,0,9
Neutral,1,2,0.4,1,1,0.433,2,0.4,1,10
Neutral,1,2,0.1,1,0,0.467,2,0.1,1,11
Neutral,1,2,0.4,-1,0,0.4,2,0.4,0,12
Neutral,1,2,0.6,1,1,0.45,2,0.6,1,13
Neutral,1,2,0.4,-1,0,0.45,2,0.4,0,14
Neutral,1,2,0.05,1,1,0.4,2,0.05,1,15
Neutral,1,2,0.05,1,0,0.517,2,0.05,1,16
Neutral,1,2,0.6,-1,0,0.567,2,0.6,0,17
Neutral,1,2,0.6,1,1,0.333,2,0.6,1,18
Neutral,1,2,0.1,-1,0,0.417,2,0.1,0,19
Neutral,1,2,0.2,1,1,0.317,2,0.2,1,20
Neutral,1,2,0,1,0,0.617,2,0,1,21
Neutral,1,2,0.2,1,1,0.417,2,0.2,1,22
Neutral,1,2,0,1,0,0.367,2,0,1,23
Neutral,1,2,0.05,1,1,0.35,2,0.05,1,24
Neutral,1,2,0.6,-1,0,0.45,2,0.6,0,25
Neutral,1,2,0.1,1,1,0.35,2,0.1,1,26
Neutral,1,2,0.4,-1,0,0.417,2,0.4,0,27
Neutral,1,2,0.1,1,1,0.367,2,0.1,1,28
Neutral,1,2,0.4,1,0,0.367,2,0.4,1,29
Neutral,1,2,0.6,1,1,0.317,2,0.6,1,30
Neutral,1,2,0.1,1,0,0.383,2,0.1,1,31
Neutral,1,2,0,-1,0,0.484,2,0,0,32
Neutral,1,2,0,1,1,0.383,2,0,1,33
Neutral,1,2,0.05,-1,0,0.533,2,0.05,0,34
Neutral,1,2,0.4,-1,0,0.383,2,0.4,0,35
Neutral,1,2,0.2,1,1,0.283,2,0.2,1,36
Neutral,1,2,0.2,-1,0,0.367,2,0.2,0,37
Neutral,1,2,0.2,-1,0,0.4,2,0.2,0,38
Neutral,1,2,0.05,-1,0,0.383,2,0.05,0,39
Neutral,1,2,0.4,-1,1,0.55,2,0.4,0,40
Neutral,1,2,0,1,0,0.35,2,0,1,41
Neutral,1,2,0,-1,1,0.75,2,0,0,42
Neutral,1,2,0.2,-1,0,0.35,2,0.2,0,43
Neutral,1,2,0,1,1,0.334,2,0,1,44
Neutral,1,2,0.2,1,1,0.284,2,0.2,1,45
Neutral,1,2,0.6,1,1,0.333,2,0.6,1,46
Neutral,1,2,0.1,-1,0,0.383,2,0.1,0,47
Neutral,1,2,0.2,-1,1,0.367,2,0.2,0,48
Neutral,1,2,0,-1,1,0.284,2,0,0,49
Neutral,1,2,0.6,-1,0,0.317,2,0.6,0,50
Neutral,1,2,0.6,1,1,0.333,2,0.6,1,51
Neutral,1,2,0,1,1,0.367,2,0,1,52
Neutral,1,2,0.05,1,1,0.367,2,0.05,1,53
Neutral,1,2,0.4,1,1,0.3,2,0.4,1,54
Neutral,1,2,0.4,1,1,0.317,2,0.4,1,55
Neutral,1,2,0.1,1,1,0.317,2,0.1,1,56
Neutral,1,2,0.2,-1,0,0.317,2,0.2,0,57
Neutral,1,2,0.4,1,1,0.317,2,0.4,1,58
Neutral,1,2,0.1,1,1,0.284,2,0.1,1,59
Neutral,1,2,0.2,1,1,0.333,2,0.2,1,60
Neutral,1,3,0,1,1,0.667,2,0,1,1
Neutral,1,3,0.05,-1,0,0.483,2,0.05,0,2
Neutral,1,3,0.05,1,1,0.933,2,0.05,1,3
Neutral,1,3,0.6,-1,0,0.733,2,0.6,0,4
Neutral,1,3,0.2,-1,0,0.717,2,0.2,0,5
Neutral,1,3,0,-1,0,1.1,2,0,0,6
Neutral,1,3,0.1,1,1,0.8,2,0.1,1,7
Neutral,1,3,0.05,1,0,0.8,2,0.05,1,8
Neutral,1,3,0.4,1,1,0.5,2,0.4,1,9
Neutral,1,3,0.1,-1,0,0.767,2,0.1,0,10
Neutral,1,3,0.1,-1,1,0.783,2,0.1,0,11
Neutral,1,3,0,1,1,0.533,2,0,1,12
Neutral,1,3,0.6,1,1,0.633,2,0.6,1,13
Neutral,1,3,0,-1,1,0.667,2,0,0,14
Neutral,1,3,0.05,-1,0,0.717,2,0.05,0,15
Neutral,1,3,0.6,-1,0,0.5,2,0.6,0,16
Neutral,1,3,0.05,1,1,0.517,2,0.05,1,17
Neutral,1,3,0.05,1,0,0.783,2,0.05,1,18
Neutral,1,3,0.2,-1,0,0.517,2,0.2,0,19
Neutral,1,3,0.1,-1,0,0.517,2,0.1,0,20
Neutral,1,3,0.2,1,1,0.483,2,0.2,1,21
Neutral,1,3,0.6,-1,0,0.633,2,0.6,0,22
Neutral,1,3,0.4,1,1,0.4,2,0.4,1,23
Neutral,1,3,0.4,1,1,0.5,2,0.4,1,24
Neutral,1,3,0.1,1,0,0.533,2,0.1,1,25
Neutral,1,3,0.1,-1,1,0.583,2,0.1,0,26
Neutral,1,3,0.05,-1,0,0.633,2,0.05,0,27
Neutral,1,3,0.2,-1,0,0.467,2,0.2,0,28
Neutral,1,3,0.2,-1,0,0.65,2,0.2,0,29
Neutral,1,3,0.6,1,1,0.433,2,0.6,1,30
Neutral,1,3,0.6,1,1,0.433,2,0.6,1,31
Neutral,1,3,0,-1,0,0.45,2,0,0,32
Neutral,1,3,0.2,-1,0,0.517,2,0.2,0,33
Neutral,1,3,0,1,1,0.383,2,0,1,34
Neutral,1,3,0.05,1,1,0.417,2,0.05,1,35
Neutral,1,3,0.2,1,1,0.383,2,0.2,1,36
Neutral,1,3,0.05,1,1,0.35,2,0.05,1,37
Neutral,1,3,0.6,1,1,0.35,2,0.6,1,38
Neutral,1,3,0,-1,0,0.417,2,0,0,39
Neutral,1,3,0.1,-1,0,0.4,2,0.1,0,40
Neutral,1,3,0.2,-1,0,0.433,2,0.2,0,41
Neutral,1,3,0,1,0,0.533,2,0,1,42
Neutral,1,3,0.4,1,1,0.4,2,0.4,1,43
Neutral,1,3,0.6,1,1,0.383,2,0.6,1,44
Neutral,1,3,0,-1,0,0.35,2,0,0,45
Neutral,1,3,0.05,-1,0,0.717,2,0.05,0,46
Neutral,1,3,0.1,1,0,0.45,2,0.1,1,47
Neutral,1,3,0.1,1,1,0.384,2,0.1,1,48
Neutral,1,3,0.4,1,1,0.333,2,0.4,1,49
Neutral,1,3,0.4,1,1,0.467,2,0.4,1,50
Neutral,1,3,0.2,-1,0,0.4,2,0.2,0,51
Neutral,1,3,0.4,-1,0,0.383,2,0.4,0,52
Neutral,1,3,0.6,1,1,0.417,2,0.6,1,53
Neutral,1,3,0.4,1,1,0.367,2,0.4,1,54
Neutral,1,3,0.4,1,1,0.333,2,0.4,1,55
Neutral,1,3,0.1,-1,1,0.35,2,0.1,0,56
Neutral,1,3,0,-1,0,0.433,2,0,0,57
Neutral,1,3,0.6,1,1,0.383,2,0.6,1,58
Neutral,1,3,0.2,1,1,0.35,2,0.2,1,59
Neutral,1,3,0.4,-1,0,0.417,2,0.4,0,60
Neutral,1,4,0.1,-1,0,0.8,2,0.1,0,1
Neutral,1,4,0.2,-1,0,0.617,2,0.2,0,2
Neutral,1,4,0.05,1,0,0.65,2,0.05,1,3
Neutral,1,4,0.05,-1,1,0.6,2,0.05,0,4
Neutral,1,4,0.1,-1,0,0.417,2,0.1,0,5
Neutral,1,4,0.05,-1,0,0.567,2,0.05,0,6
Neutral,1,4,0.4,-1,0,0.483,2,0.4,0,7
Neutral,1,4,0,1,1,0.617,2,0,1,8
Neutral,1,4,0.05,-1,0,0.433,2,0.05,0,9
Neutral,1,4,0.05,1,0,0.367,2,0.05,1,10
Neutral,1,4,0.6,-1,0,0.4,2,0.6,0,11
Neutral,1,4,0.6,-1,0,0.417,2,0.6,0,12
Neutral,1,4,0.4,1,1,0.433,2,0.4,1,13
Neutral,1,4,0.1,1,0,0.617,2,0.1,1,14
Neutral,1,4,0.2,1,1,0.383,2,0.2,1,15
Neutral,1,4,0.2,-1,0,0.317,2,0.2,0,16
Neutral,1,4,0.1,-1,0,0.383,2,0.1,0,17
Neutral,1,4,0.2,-1,0,0.483,2,0.2,0,18
Neutral,1,4,0.1,-1,0,0.4,2,0.1,0,19
Neutral,1,4,0.1,-1,1,0.4,2,0.1,0,20
Neutral,1,4,0.1,1,1,0.367,2,0.1,1,21
Neutral,1,4,0.4,-1,0,0.35,2,0.4,0,22
Neutral,1,4,0.2,1,1,0.383,2,0.2,1,23
Neutral,1,4,0.6,1,1,0.35,2,0.6,1,24
Neutral,1,4,0.05,1,1,0.333,2,0.05,1,25
Neutral,1,4,0.1,1,0,0.35,2,0.1,1,26
Neutral,1,4,0,-1,1,0.383,2,0,0,27
Neutral,1,4,0.2,-1,0,0.367,2,0.2,0,28
Neutral,1,4,0,1,1,0.383,2,0,1,29
Neutral,1,4,0.1,1,1,0.467,2,0.1,1,30
Neutral,1,4,0.2,1,1,0.35,2,0.2,1,31
Neutral,1,4,0.2,1,1,0.45,2,0.2,1,32
Neutral,1,4,0.05,1,0,0.733,2,0.05,1,33
Neutral,1,4,0.2,-1,0,0.333,2,0.2,0,34
Neutral,1,4,0,1,1,0.533,2,0,1,35
Neutral,1,4,0,1,1,0.367,2,0,1,36
Neutral,1,4,0.6,-1,0,0.333,2,0.6,0,37
Neutral,1,4,0.05,-1,1,0.383,2,0.05,0,38
Neutral,1,4,0,-1,0,0.333,2,0,0,39
Neutral,1,4,0.05,-1,1,0.4,2,0.05,0,40
Neutral,1,4,0.4,1,1,0.367,2,0.4,1,41
Neutral,1,4,0.6,1,1,0.333,2,0.6,1,42
Neutral,1,4,0.4,1,1,0.35,2,0.4,1,43
Neutral,1,4,0.4,1,1,0.383,2,0.4,1,44
Neutral,1,4,0.6,-1,0,0.4,2,0.6,0,45
Neutral,1,4,0,-1,1,0.317,2,0,0,46
Neutral,1,4,0.4,1,1,0.35,2,0.4,1,47
Neutral,1,4,0.2,1,0,0.4,2,0.2,1,48
Neutral,1,4,0.6,1,1,0.367,2,0.6,1,49
Neutral,1,4,0.4,-1,0,0.35,2,0.4,0,50
Neutral,1,4,0,1,1,0.4,2,0,1,51
Neutral,1,4,0.6,-1,0,0.4,2,0.6,0,52
Neutral,1,4,0.1,-1,1,0.35,2,0.1,0,53
Neutral,1,4,0,1,0,0.417,2,0,1,54
Neutral,1,4,0.6,1,1,0.4,2,0.6,1,55
Neutral,1,4,0.4,1,1,0.333,2,0.4,1,56
Neutral,1,4,0.4,-1,0,0.367,2,0.4,0,57
Neutral,1,4,0,-1,1,0.267,2,0,0,58
Neutral,1,4,0.05,-1,0,0.367,2,0.05,0,59
Neutral,1,4,0.6,1,1,0.35,2,0.6,1,60
Neutral,1,5,0.05,1,1,0.583,2,0.05,1,1
Neutral,1,5,0.2,-1,0,0.483,2,0.2,0,2
Neutral,1,5,0.05,-1,0,0.533,2,0.05,0,3
Neutral,1,5,0.2,-1,0,0.383,2,0.2,0,4
Neutral,1,5,0.4,-1,0,0.4,2,0.4,0,5
Neutral,1,5,0,1,1,0.367,2,0,1,6
Neutral,1,5,0.6,-1,0,0.35,2,0.6,0,7
Neutral,1,5,0.05,-1,1,0.35,2,0.05,0,8
Neutral,1,5,0.6,1,1,0.367,2,0.6,1,9
Neutral,1,5,0.4,-1,0,0.4,2,0.4,0,10
Neutral,1,5,0,1,0,0.383,2,0,1,11
Neutral,1,5,0.6,-1,0,0.367,2,0.6,0,12
Neutral,1,5,0.4,-1,0,0.383,2,0.4,0,13
Neutral,1,5,0.1,1,1,0.333,2,0.1,1,14
Neutral,1,5,0,-1,1,0.2,2,0,0,15
Neutral,1,5,0,1,1,0.333,2,0,1,16
Neutral,1,5,0.1,-1,1,0.517,2,0.1,0,17
Neutral,1,5,0.2,1,1,0.367,2,0.2,1,18
Neutral,1,5,0.2,1,1,0.417,2,0.2,1,19
Neutral,1,5,0.6,-1,0,0.367,2,0.6,0,20
Neutral,1,5,0.6,1,1,0.333,2,0.6,1,21
Neutral,1,5,0.2,1,1,0.35,2,0.2,1,22
Neutral,1,5,0.6,1,1,0.4,2,0.6,1,23
Neutral,1,5,0.1,1,1,0.383,2,0.1,1,24
Neutral,1,5,0.05,-1,0,0.417,2,0.05,0,25
Neutral,1,5,0.1,-1,0,0.333,2,0.1,0,26
Neutral,1,5,0.05,1,1,0.35,2,0.05,1,27
Neutral,1,5,0.2,1,1,0.334,2,0.2,1,28
Neutral,1,5,0.05,1,0,0.567,2,0.05,1,29
Neutral,1,5,0.4,1,1,0.283,2,0.4,1,30
Neutral,1,5,0.6,1,1,0.2,2,0.6,1,31
Neutral,1,5,0.2,1,1,0.3,2,0.2,1,32
Neutral,1,5,0.4,1,1,0.35,2,0.4,1,33
Neutral,1,5,0.4,-1,0,0.417,2,0.4,0,34
Neutral,1,5,0.4,1,1,0.367,2,0.4,1,35
Neutral,1,5,0.1,1,0,0.55,2,0.1,1,36
Neutral,1,5,0,-1,0,0.35,2,0,0,37
Neutral,1,5,0.1,-1,0,0.384,2,0.1,0,38
Neutral,1,5,0.05,1,1,0.4,2,0.05,1,39
Neutral,1,5,0,-1,1,0.517,2,0,0,40
Neutral,1,5,0.1,-1,0,0.384,2,0.1,0,41
Neutral,1,5,0.4,-1,0,0.317,2,0.4,0,42
Neutral,1,5,0.05,-1,1,0.417,2,0.05,0,43
Neutral,1,5,0.1,-1,0,0.433,2,0.1,0,44
Neutral,1,5,0.6,1,1,0.433,2,0.6,1,45
Neutral,1,5,0.6,-1,0,0.45,2,0.6,0,46
Neutral,1,5,0.2,1,1,0.35,2,0.2,1,47
Neutral,1,5,0,1,0,0.384,2,0,1,48
Neutral,1,5,0.2,1,1,0.35,2,0.2,1,49
Neutral,1,5,0.05,-1,0,0.383,2,0.05,0,50
Neutral,1,5,0.6,1,1,0.333,2,0.6,1,51
Neutral,1,5,0.4,-1,0,0.35,2,0.4,0,52
Neutral,1,5,0.1,1,1,0.383,2,0.1,1,53
Neutral,1,5,0.4,1,1,0.367,2,0.4,1,54
Neutral,1,5,0,-1,0,0.433,2,0,0,55
Neutral,1,5,0.05,1,0,0.383,2,0.05,1,56
Neutral,1,5,0.2,1,1,0.433,2,0.2,1,57
Neutral,1,5,0,-1,1,0.35,2,0,0,58
Neutral,1,5,0,-1,0,0.35,2,0,0,59
Neutral,1,5,0.1,-1,0,0.45,2,0.1,0,60
Neutral,1,6,0.4,1,1,0.6,2,0.4,1,1
Neutral,1,6,0,-1,0,0.517,2,0,0,2
Neutral,1,6,0.2,1,1,0.417,2,0.2,1,3
Neutral,1,6,0.2,-1,0,0.483,2,0.2,0,4
Neutral,1,6,0,-1,0,0.483,2,0,0,5
Neutral,1,6,0.1,-1,0,0.45,2,0.1,0,6
Neutral,1,6,0.2,1,1,0.65,2,0.2,1,7
Neutral,1,6,0.6,-1,0,0.4,2,0.6,0,8
Neutral,1,6,0.1,1,1,0.417,2,0.1,1,9
Neutral,1,6,0,1,0,0.45,2,0,1,10
Neutral,1,6,0.6,-1,0,0.383,2,0.6,0,11
Neutral,1,6,0.1,1,1,0.383,2,0.1,1,12
Neutral,1,6,0,-1,0,0.4,2,0,0,13
Neutral,1,6,0.1,-1,0,0.434,2,0.1,0,14
Neutral,1,6,0.6,-1,0,0.467,2,0.6,0,15
Neutral,1,6,0.05,1,0,0.5,2,0.05,1,16
Neutral,1,6,0,1,1,0.55,2,0,1,17
Neutral,1,6,0,1,0,0.367,2,0,1,18
Neutral,1,6,0.1,1,0,0.384,2,0.1,1,19
Neutral,1,6,0.6,-1,0,0.4,2,0.6,0,20
Neutral,1,6,0.05,1,1,0.45,2,0.05,1,21
Neutral,1,6,0.4,-1,0,0.35,2,0.4,0,22
Neutral,1,6,0.6,-1,0,0.35,2,0.6,0,23
Neutral,1,6,0.2,-1,0,0.4,2,0.2,0,24
Neutral,1,6,0.05,1,0,0.367,2,0.05,1,25
Neutral,1,6,0,1,0,0.717,2,0,1,26
Neutral,1,6,0.4,-1,0,0.383,2,0.4,0,27
Neutral,1,6,0.6,1,1,0.417,2,0.6,1,28
Neutral,1,6,0.05,1,0,0.367,2,0.05,1,29
Neutral,1,6,0.4,-1,0,0.367,2,0.4,0,30
Neutral,1,6,0.4,-1,0,0.333,2,0.4,0,31
Neutral,1,6,0,-1,1,0.4,2,0,0,32
Neutral,1,6,0.05,-1,0,0.35,2,0.05,0,33
Neutral,1,6,0.2,-1,0,0.35,2,0.2,0,34
Neutral,1,6,0.1,-1,0,0.383,2,0.1,0,35
Neutral,1,6,0.1,1,0,0.433,2,0.1,1,36
Neutral,1,6,0.4,-1,0,0.417,2,0.4,0,37
Neutral,1,6,0.2,1,1,0.433,2,0.2,1,38
Neutral,1,6,0.2,-1,0,0.417,2,0.2,0,39
Neutral,1,6,0.6,1,1,0.317,2,0.6,1,40
Neutral,1,6,0.05,-1,0,0.317,2,0.05,0,41
Neutral,1,6,0.1,-1,0,0.367,2,0.1,0,42
Neutral,1,6,0.05,-1,0,0.35,2,0.05,0,43
Neutral,1,6,0.05,-1,1,0.683,2,0.05,0,44
Neutral,1,6,0.6,1,1,0.367,2,0.6,1,45
Neutral,1,6,0.4,-1,0,0.383,2,0.4,0,46
Neutral,1,6,0.1,1,1,0.383,2,0.1,1,47
Neutral,1,6,0.6,1,1,0.45,2,0.6,1,48
Neutral,1,6,0,-1,1,0.35,2,0,0,49
Neutral,1,6,0.4,-1,0,0.383,2,0.4,0,50
Neutral,1,6,0.2,1,1,0.417,2,0.2,1,51
Neutral,1,6,0.4,1,1,0.3,2,0.4,1,52
Neutral,1,6,0.2,1,0,0.417,2,0.2,1,53
Neutral,1,6,0,-1,0,0.317,2,0,0,54
Neutral,1,6,0.05,1,0,0.633,2,0.05,1,55
Neutral,1,6,0.2,-1,0,0.367,2,0.2,0,56
Neutral,1,6,0.6,-1,0,0.333,2,0.6,0,57
Neutral,1,6,0.4,1,1,0.383,2,0.4,1,58
Neutral,1,6,0.1,-1,0,0.383,2,0.1,0,59
Neutral,1,6,0.05,1,1,0.583,2,0.05,1,60
Neutral,1,7,0.2,-1,0,0.7,2,0.2,0,1
Neutral,1,7,0.4,-1,0,0.617,2,0.4,0,2
Neutral,1,7,0.6,-1,0,0.75,2,0.6,0,3
Neutral,1,7,0.2,1,1,0.733,2,0.2,1,4
Neutral,1,7,0.4,1,1,0.583,2,0.4,1,5
Neutral,1,7,0.2,1,1,0.683,2,0.2,1,6
Neutral,1,7,0,1,0,0.633,2,0,1,7
Neutral,1,7,0.05,-1,1,0.567,2,0.05,0,8
Neutral,1,7,0.2,-1,0,0.567,2,0.2,0,9
Neutral,1,7,0.4,-1,0,0.683,2,0.4,0,10
Neutral,1,7,0.4,-1,0,0.533,2,0.4,0,11
Neutral,1,7,0.4,-1,0,0.633,2,0.4,0,12
Neutral,1,7,0.1,1,1,0.517,2,0.1,1,13
Neutral,1,7,0.1,1,0,1.13,2,0.1,1,14
Neutral,1,7,0.4,-1,0,0.583,2,0.4,0,15
Neutral,1,7,0.1,1,1,0.533,2,0.1,1,16
Neutral,1,7,0,1,0,1.13,2,0,1,17
Neutral,1,7,0.4,-1,0,0.5,2,0.4,0,18
Neutral,1,7,0.05,1,1,0.517,2,0.05,1,19
Neutral,1,7,0.1,-1,0,0.717,2,0.1,0,20
Neutral,1,7,0.1,1,1,0.433,2,0.1,1,21
Neutral,1,7,0.1,1,0,1.05,2,0.1,1,22
Neutral,1,7,0.6,1,1,0.45,2,0.6,1,23
Neutral,1,7,0.4,-1,0,0.6,2,0.4,0,24
Neutral,1,7,0.05,-1,0,0.467,2,0.05,0,25
Neutral,1,7,0.6,1,1,0.517,2,0.6,1,26
Neutral,1,7,0.05,-1,0,0.55,2,0.05,0,27
Neutral,1,7,0.05,1,1,0.833,2,0.05,1,28
Neutral,1,7,0,-1,0,0.417,2,0,0,29
Neutral,1,7,0.6,1,1,0.55,2,0.6,1,30
Neutral,1,7,0,1,0,0.667,2,0,1,31
Neutral,1,7,0.1,-1,0,0.483,2,0.1,0,32
Neutral,1,7,0.2,1,1,0.367,2,0.2,1,33
Neutral,1,7,0.6,-1,0,0.483,2,0.6,0,34
Neutral,1,7,0.05,1,1,1.03,2,0.05,1,35
Neutral,1,7,0.6,-1,0,0.55,2,0.6,0,36
Neutral,1,7,0.1,1,1,0.733,2,0.1,1,37
Neutral,1,7,0.6,-1,0,0.617,2,0.6,0,38
Neutral,1,7,0,-1,1,1.4,2,0,0,39
Neutral,1,7,0.2,1,1,0.667,2,0.2,1,40
Neutral,1,7,0.4,-1,0,0.483,2,0.4,0,41
Neutral,1,7,0.6,1,1,0.783,2,0.6,1,42
Neutral,1,7,0.6,-1,0,0.6,2,0.6,0,43
Neutral,1,7,0,1,0,0.817,2,0,1,44
Neutral,1,7,0.05,1,1,0.45,2,0.05,1,45
Neutral,1,7,0.4,1,1,0.4,2,0.4,1,46
Neutral,1,7,0,1,0,0.783,2,0,1,47
Neutral,1,7,0.2,1,1,0.467,2,0.2,1,48
Neutral,1,7,0.2,1,1,0.667,2,0.2,1,49
Neutral,1,7,0,-1,1,0.533,2,0,0,50
Neutral,1,7,0.2,-1,0,0.633,2,0.2,0,51
Neutral,1,7,0.05,-1,1,0.433,2,0.05,0,52
Neutral,1,7,0.05,1,1,1.08,2,0.05,1,53
Neutral,1,7,0.05,1,0,0.6,2,0.05,1,54
Neutral,1,7,0.6,1,1,0.533,2,0.6,1,55
Neutral,1,7,0.1,1,0,0.417,2,0.1,1,56
Neutral,1,7,0.2,1,1,0.467,2,0.2,1,57
Neutral,1,7,0,1,0,0.517,2,0,1,58
Neutral,1,7,0.1,-1,1,0.567,2,0.1,0,59
Neutral,1,7,0,1,1,0.55,2,0,1,60
Neutral,1,8,0.4,1,1,0.533,2,0.4,1,1
Neutral,1,8,0.2,1,1,0.433,2,0.2,1,2
Neutral,1,8,0.1,-1,0,0.467,2,0.1,0,3
Neutral,1,8,0.1,1,1,0.433,2,0.1,1,4
Neutral,1,8,0.2,-1,0,0.6,2,0.2,0,5
Neutral,1,8,0.05,-1,0,0.667,2,0.05,0,6
Neutral,1,8,0.1,-1,0,0.433,2,0.1,0,7
Neutral,1,8,0.05,1,0,0.767,2,0.05,1,8
Neutral,1,8,0.05,1,0,0.6,2,0.05,1,9
Neutral,1,8,0.2,1,1,0.617,2,0.2,1,10
Neutral,1,8,0,1,1,0.45,2,0,1,11
Neutral,1,8,0,-1,0,0.7,2,0,0,12
Neutral,1,8,0.6,1,1,0.417,2,0.6,1,13
Neutral,1,8,0.2,1,1,0.617,2,0.2,1,14
Neutral,1,8,0.4,-1,0,0.367,2,0.4,0,15
Neutral,1,8,0.6,1,1,0.517,2,0.6,1,16
Neutral,1,8,0.4,1,1,0.4,2,0.4,1,17
Neutral,1,8,0.05,-1,0,0.5,2,0.05,0,18
Neutral,1,8,0,-1,0,0.45,2,0,0,19
Neutral,1,8,0.4,1,1,0.4,2,0.4,1,20
Neutral,1,8,0,-1,1,0.35,2,0,0,21
Neutral,1,8,0.05,-1,0,0.6,2,0.05,0,22
Neutral,1,8,0.4,-1,0,0.4,2,0.4,0,23
Neutral,1,8,0,-1,0,0.467,2,0,0,24
Neutral,1,8,0.05,-1,0,0.6,2,0.05,0,25
Neutral,1,8,0.2,-1,0,0.333,2,0.2,0,26
Neutral,1,8,0.6,-1,0,0.333,2,0.6,0,27
Neutral,1,8,0.05,-1,0,0.317,2,0.05,0,28
Neutral,1,8,0.4,1,1,0.35,2,0.4,1,29
Neutral,1,8,0.4,1,1,0.317,2,0.4,1,30
Neutral,1,8,0.6,-1,0,0.4,2,0.6,0,31
Neutral,1,8,0,1,0,0.35,2,0,1,32
Neutral,1,8,0,1,1,0.284,2,0,1,33
Neutral,1,8,0,-1,0,0.317,2,0,0,34
Neutral,1,8,0.6,-1,0,0.35,2,0.6,0,35
Neutral,1,8,0.2,-1,0,0.367,2,0.2,0,36
Neutral,1,8,0.1,-1,0,0.333,2,0.1,0,37
Neutral,1,8,0.6,-1,0,0.284,2,0.6,0,38
Neutral,1,8,0.6,1,1,0.317,2,0.6,1,39
Neutral,1,8,0.1,-1,0,0.333,2,0.1,0,40
Neutral,1,8,0.1,-1,0,0.383,2,0.1,0,41
Neutral,1,8,0.1,1,0,0.417,2,0.1,1,42
Neutral,1,8,0.2,1,1,0.333,2,0.2,1,43
Neutral,1,8,0.6,-1,0,0.4,2,0.6,0,44
Neutral,1,8,0.4,-1,0,0.384,2,0.4,0,45
Neutral,1,8,0.1,1,1,0.383,2,0.1,1,46
Neutral,1,8,0.6,-1,0,0.35,2,0.6,0,47
Neutral,1,8,0.2,-1,0,0.417,2,0.2,0,48
Neutral,1,8,0.2,-1,0,0.417,2,0.2,0,49
Neutral,1,8,0.1,1,1,0.433,2,0.1,1,50
Neutral,1,8,0.1,1,1,0.35,2,0.1,1,51
Neutral,1,8,0.05,-1,0,0.4,2,0.05,0,52
Neutral,1,8,0.05,1,1,0.434,2,0.05,1,53
Neutral,1,8,0,-1,0,0.367,2,0,0,54
Neutral,1,8,0,1,0,0.45,2,0,1,55
Neutral,1,8,0.4,1,1,0.367,2,0.4,1,56
Neutral,1,8,0.05,-1,0,0.367,2,0.05,0,57
Neutral,1,8,0.6,1,1,0.283,2,0.6,1,58
Neutral,1,8,0.2,1,1,0.333,2,0.2,1,59
Neutral,1,8,0.4,1,0,0.467,2,0.4,1,60
Neutral,1,9,0.2,-1,0,0.983,2,0.2,0,1
Neutral,1,9,0.4,-1,0,0.45,2,0.4,0,2
Neutral,1,9,0.6,-1,0,0.383,2,0.6,0,3
Neutral,1,9,0.05,-1,0,0.433,2,0.05,0,4
Neutral,1,9,0.05,-1,0,0.417,2,0.05,0,5
Neutral,1,9,0.05,-1,1,0.417,2,0.05,0,6
Neutral,1,9,0.6,1,1,0.367,2,0.6,1,7
Neutral,1,9,0,-1,0,0.383,2,0,0,8
Neutral,1,9,0.2,1,1,0.783,2,0.2,1,9
Neutral,1,9,0.4,-1,0,0.417,2,0.4,0,10
Neutral,1,9,0.05,1,0,0.4,2,0.05,1,11
Neutral,1,9,0.2,1,1,0.333,2,0.2,1,12
Neutral,1,9,0.6,-1,0,0.317,2,0.6,0,13
Neutral,1,9,0,1,0,0.4,2,0,1,14
Neutral,1,9,0.2,-1,0,0.417,2,0.2,0,15
Neutral,1,9,0.05,-1,0,0.383,2,0.05,0,16
Neutral,1,9,0.6,-1,0,0.367,2,0.6,0,17
Neutral,1,9,0.2,-1,0,0.383,2,0.2,0,18
Neutral,1,9,0.1,1,1,0.333,2,0.1,1,19
Neutral,1,9,0.4,1,1,0.35,2,0.4,1,20
Neutral,1,9,0.6,-1,0,0.383,2,0.6,0,21
Neutral,1,9,0.6,-1,0,0.367,2,0.6,0,22
Neutral,1,9,0.1,-1,0,0.4,2,0.1,0,23
Neutral,1,9,0.6,-1,0,0.4,2,0.6,0,24
Neutral,1,9,0,-1,0,0.383,2,0,0,25
Neutral,1,9,0.6,-1,0,0.383,2,0.6,0,26
Neutral,1,9,0.05,-1,1,0.383,2,0.05,0,27
Neutral,1,9,0,-1,0,0.6,2,0,0,28
Neutral,1,9,0,-1,0,0.417,2,0,0,29
Neutral,1,9,0.2,-1,0,0.434,2,0.2,0,30
Neutral,1,9,0.1,1,0,0.333,2,0.1,1,31
Neutral,1,9,0.6,1,1,0.317,2,0.6,1,32
Neutral,1,9,0.1,-1,1,0.45,2,0.1,0,33
Neutral,1,9,0,1,0,0.583,2,0,1,34
Neutral,1,9,0,1,0,0.3,2,0,1,35
Neutral,1,9,0.05,-1,0,0.4,2,0.05,0,36
Neutral,1,9,0.1,1,0,0.6,2,0.1,1,37
Neutral,1,9,0.05,-1,0,0.717,2,0.05,0,38
Neutral,1,9,0.1,1,0,0.517,2,0.1,1,39
Neutral,1,9,0.2,1,1,0.367,2,0.2,1,40
Neutral,1,9,0.4,-1,0,0.433,2,0.4,0,41
Neutral,1,9,0.1,-1,0,0.5,2,0.1,0,42
Neutral,1,9,0.1,-1,0,0.35,2,0.1,0,43
Neutral,1,9,0,1,0,0.433,2,0,1,44
Neutral,1,9,0.4,-1,0,0.367,2,0.4,0,45
Neutral,1,9,0.05,-1,1,0.367,2,0.05,0,46
Neutral,1,9,0.05,1,0,0.45,2,0.05,1,47
Neutral,1,9,0.4,-1,0,0.45,2,0.4,0,48
Neutral,1,9,0.6,-1,0,0.383,2,0.6,0,49
Neutral,1,9,0.2,1,1,0.417,2,0.2,1,50
Neutral,1,9,0.4,1,1,0.45,2,0.4,1,51
Neutral,1,9,0.1,1,0,0.483,2,0.1,1,52
Neutral,1,9,0.4,-1,0,0.483,2,0.4,0,53
Neutral,1,9,0,-1,0,0.45,2,0,0,54
Neutral,1,9,0.4,1,1,0.45,2,0.4,1,55
Neutral,1,9,0,1,0,0.383,2,0,1,56
Neutral,1,9,0.2,-1,0,0.433,2,0.2,0,57
Neutral,1,9,0.1,-1,0,0.417,2,0.1,0,58
Neutral,1,9,0.2,-1,0,0.433,2,0.2,0,59
Neutral,1,9,0.4,-1,0,0.4,2,0.4,0,60
Neutral,1,10,0.6,-1,0,0.467,2,0.6,0,1
Neutral,1,10,0,1,0,0.633,2,0,1,2
Neutral,1,10,0.1,-1,0,0.383,2,0.1,0,3
Neutral,1,10,0.1,-1,0,0.417,2,0.1,0,4
Neutral,1,10,0.4,-1,0,0.45,2,0.4,0,5
Neutral,1,10,0.4,1,1,0.45,2,0.4,1,6
Neutral,1,10,0.2,-1,0,0.433,2,0.2,0,7
Neutral,1,10,0.4,-1,0,0.383,2,0.4,0,8
Neutral,1,10,0.1,1,1,0.35,2,0.1,1,9
Neutral,1,10,0,-1,0,0.4,2,0,0,10
Neutral,1,10,0.4,1,1,0.467,2,0.4,1,11
Neutral,1,10,0,1,0,0.417,2,0,1,12
Neutral,1,10,0.05,1,1,0.417,2,0.05,1,13
Neutral,1,10,0.6,1,1,0.417,2,0.6,1,14
Neutral,1,10,0.6,-1,0,0.383,2,0.6,0,15
Neutral,1,10,0.1,1,1,0.5,2,0.1,1,16
Neutral,1,10,0,1,0,0.4,2,0,1,17
Neutral,1,10,0.1,1,1,0.467,2,0.1,1,18
Neutral,1,10,0.1,-1,0,0.45,2,0.1,0,19
Neutral,1,10,0.2,-1,0,0.45,2,0.2,0,20
Neutral,1,10,0.05,-1,1,0.517,2,0.05,0,21
Neutral,1,10,0,1,0,0.333,2,0,1,22
Neutral,1,10,0.2,1,1,0.4,2,0.2,1,23
Neutral,1,10,0.4,-1,0,0.383,2,0.4,0,24
Neutral,1,10,0,1,1,0.4,2,0,1,25
Neutral,1,10,0.1,1,0,0.4,2,0.1,1,26
Neutral,1,10,0.6,1,1,0.45,2,0.6,1,27
Neutral,1,10,0.6,1,1,0.367,2,0.6,1,28
Neutral,1,10,0.2,1,1,0.367,2,0.2,1,29
Neutral,1,10,0,-1,0,0.383,2,0,0,30
Neutral,1,10,0.05,-1,1,0.683,2,0.05,0,31
Neutral,1,10,0.05,-1,1,0.35,2,0.05,0,32
Neutral,1,10,0.6,-1,0,0.384,2,0.6,0,33
Neutral,1,10,0.2,-1,0,0.367,2,0.2,0,34
Neutral,1,10,0.2,1,1,0.367,2,0.2,1,35
Neutral,1,10,0.2,-1,0,0.383,2,0.2,0,36
Neutral,1,10,0.05,1,1,0.4,2,0.05,1,37
Neutral,1,10,0,-1,1,0.4,2,0,0,38
Neutral,1,10,0.4,1,1,0.4,2,0.4,1,39
Neutral,1,10,0.05,1,0,0.717,2,0.05,1,40
Neutral,1,10,0.1,-1,0,0.383,2,0.1,0,41
Neutral,1,10,0.2,-1,0,0.35,2,0.2,0,42
Neutral,1,10,0.6,1,1,0.4,2,0.6,1,43
Neutral,1,10,0.05,1,0,1,2,0.05,1,44
Neutral,1,10,0.6,-1,0,0.4,2,0.6,0,45
Neutral,1,10,0.6,1,1,0.367,2,0.6,1,46
Neutral,1,10,0,1,0,0.333,2,0,1,47
Neutral,1,10,0.05,-1,1,0.8,2,0.05,0,48
Neutral,1,10,0.2,1,1,0.517,2,0.2,1,49
Neutral,1,10,0.4,-1,0,0.383,2,0.4,0,50
Neutral,1,10,0.6,1,1,0.45,2,0.6,1,51
Neutral,1,10,0.4,1,1,0.35,2,0.4,1,52
Neutral,1,10,0.05,1,1,0.333,2,0.05,1,53
Neutral,1,10,0.2,1,1,0.433,2,0.2,1,54
Neutral,1,10,0.1,1,0,0.35,2,0.1,1,55
Neutral,1,10,0,-1,1,0.433,2,0,0,56
Neutral,1,10,0.4,1,1,0.433,2,0.4,1,57
Neutral,1,10,0.05,1,1,0.333,2,0.05,1,58
Neutral,1,10,0.1,-1,0,0.5,2,0.1,0,59
Neutral,1,10,0.4,1,1,0.35,2,0.4,1,60
Neutral,4,1,0,1,0,0.739,2,0,1,1
Neutral,4,1,0.6,1,1,0.533,2,0.6,1,2
Neutral,4,1,0.1,-1,0,0.667,2,0.1,0,3
Neutral,4,1,0.6,-1,0,0.583,2,0.6,0,4
Neutral,4,1,0.2,1,1,0.567,2,0.2,1,5
Neutral,4,1,0.05,-1,0,0.567,2,0.05,0,6
Neutral,4,1,0.4,-1,0,0.467,2,0.4,0,7
Neutral,4,1,0.05,-1,1,0.45,2,0.05,0,8
Neutral,4,1,0.1,1,1,0.583,2,0.1,1,9
Neutral,4,1,0.4,1,1,0.467,2,0.4,1,10
Neutral,4,1,0.1,1,0,0.417,2,0.1,1,11
Neutral,4,1,0.6,-1,0,0.433,2,0.6,0,12
Neutral,4,1,0.6,-1,0,0.433,2,0.6,0,13
Neutral,4,1,0.4,-1,0,0.534,2,0.4,0,14
Neutral,4,1,0.2,1,1,0.417,2,0.2,1,15
Neutral,4,1,0.6,-1,0,0.4,2,0.6,0,16
Neutral,4,1,0.1,1,1,0.4,2,0.1,1,17
Neutral,4,1,0.4,1,1,0.367,2,0.4,1,18
Neutral,4,1,0.1,-1,0,0.383,2,0.1,0,19
Neutral,4,1,0.05,1,0,0.383,2,0.05,1,20
Neutral,4,1,0.6,-1,0,0.383,2,0.6,0,21
Neutral,4,1,0.05,1,0,0.4,2,0.05,1,22
Neutral,4,1,0.1,1,1,0.333,2,0.1,1,23
Neutral,4,1,0.1,1,1,0.333,2,0.1,1,24
Neutral,4,1,0.6,-1,0,0.384,2,0.6,0,25
Neutral,4,1,0.4,-1,0,0.433,2,0.4,0,26
Neutral,4,1,0.05,-1,0,0.333,2,0.05,0,27
Neutral,4,1,0.2,-1,0,0.4,2,0.2,0,28
Neutral,4,1,0.2,1,1,0.35,2,0.2,1,29
Neutral,4,1,0.2,1,1,0.383,2,0.2,1,30
Neutral,4,1,0,1,1,0.4,2,0,1,31
Neutral,4,1,0,1,0,0.367,2,0,1,32
Neutral,4,1,0.1,1,1,0.35,2,0.1,1,33
Neutral,4,1,0,-1,0,0.433,2,0,0,34
Neutral,4,1,0.2,1,1,0.367,2,0.2,1,35
Neutral,4,1,0,1,0,0.35,2,0,1,36
Neutral,4,1,0.05,-1,0,0.367,2,0.05,0,37
Neutral,4,1,0,1,1,0.417,2,0,1,38
Neutral,4,1,0,1,0,0.517,2,0,1,39
Neutral,4,1,0.6,-1,0,0.383,2,0.6,0,40
Neutral,4,1,0.4,1,1,0.4,2,0.4,1,41
Neutral,4,1,0.2,-1,0,0.4,2,0.2,0,42
Neutral,4,1,0.6,1,1,0.333,2,0.6,1,43
Neutral,4,1,0.05,1,0,0.383,2,0.05,1,44
Neutral,4,1,0.4,-1,0,0.467,2,0.4,0,45
Neutral,4,1,0.2,1,1,0.4,2,0.2,1,46
Neutral,4,1,0.4,-1,0,0.367,2,0.4,0,47
Neutral,4,1,0.2,-1,0,0.384,2,0.2,0,48
Neutral,4,1,0.6,-1,0,0.433,2,0.6,0,49
Neutral,4,1,0,1,0,0.533,2,0,1,50
Neutral,4,1,0.2,1,1,0.367,2,0.2,1,51
Neutral,4,1,0.4,1,1,0.3,2,0.4,1,52
Neutral,4,1,0.1,-1,0,0.434,2,0.1,0,53
Neutral,4,1,0,1,0,0.35,2,0,1,54
Neutral,4,1,0.4,-1,0,0.383,2,0.4,0,55
Neutral,4,1,0,1,0,0.383,2,0,1,56
Neutral,4,1,0.1,1,1,0.417,2,0.1,1,57
Neutral,4,1,0.05,1,0,0.4,2,0.05,1,58
Neutral,4,1,0.05,1,0,0.367,2,0.05,1,59
Neutral,4,1,0.05,1,1,0.383,2,0.05,1,60
Neutral,4,2,0,1,0,0.767,2,0,1,1
Neutral,4,2,0.05,-1,1,0.883,2,0.05,0,2
Neutral,4,2,0.05,-1,1,0.8,2,0.05,0,3
Neutral,4,2,0.4,1,1,0.433,2,0.4,1,4
Neutral,4,2,0.1,1,1,0.967,2,0.1,1,5
Neutral,4,2,0.05,1,1,0.5,2,0.05,1,6
Neutral,4,2,0.6,1,1,0.417,2,0.6,1,7
Neutral,4,2,0.05,-1,0,0.467,2,0.05,0,8
Neutral,4,2,0.6,-1,0,0.367,2,0.6,0,9
Neutral,4,2,0,1,0,0.417,2,0,1,10
Neutral,4,2,0.1,-1,0,0.417,2,0.1,0,11
Neutral,4,2,0.6,1,1,0.367,2,0.6,1,12
Neutral,4,2,0.4,-1,0,0.3,2,0.4,0,13
Neutral,4,2,0.1,1,1,0.3,2,0.1,1,14
Neutral,4,2,0.1,-1,0,0.333,2,0.1,0,15
Neutral,4,2,0,-1,1,0.417,2,0,0,16
Neutral,4,2,0.2,1,1,0.367,2,0.2,1,17
Neutral,4,2,0.6,1,1,0.367,2,0.6,1,18
Neutral,4,2,0.1,-1,0,0.433,2,0.1,0,19
Neutral,4,2,0.05,-1,0,0.583,2,0.05,0,20
Neutral,4,2,0,1,0,0.383,2,0,1,21
Neutral,4,2,0.4,1,1,0.333,2,0.4,1,22
Neutral,4,2,0.05,-1,0,0.383,2,0.05,0,23
Neutral,4,2,0.05,-1,1,0.617,2,0.05,0,24
Neutral,4,2,0.2,1,1,0.333,2,0.2,1,25
Neutral,4,2,0.2,-1,0,0.35,2,0.2,0,26
Neutral,4,2,0.4,-1,0,0.367,2,0.4,0,27
Neutral,4,2,0.6,-1,0,0.383,2,0.6,0,28
Neutral,4,2,0.1,1,1,0.417,2,0.1,1,29
Neutral,4,2,0.1,1,0,0.4,2,0.1,1,30
Neutral,4,2,0.2,1,1,0.4,2,0.2,1,31
Neutral,4,2,0.4,-1,0,0.35,2,0.4,0,32
Neutral,4,2,0.2,-1,0,0.333,2,0.2,0,33
Neutral,4,2,0.05,1,1,0.367,2,0.05,1,34
Neutral,4,2,0,1,0,0.333,2,0,1,35
Neutral,4,2,0.6,-1,0,0.3,2,0.6,0,36
Neutral,4,2,0.2,-1,0,0.483,2,0.2,0,37
Neutral,4,2,0.2,-1,0,0.3,2,0.2,0,38
Neutral,4,2,0.1,1,0,0.35,2,0.1,1,39
Neutral,4,2,0.6,1,1,0.3,2,0.6,1,40
Neutral,4,2,0.2,-1,0,0.35,2,0.2,0,41
Neutral,4,2,0.6,-1,0,0.284,2,0.6,0,42
Neutral,4,2,0.6,-1,0,0.35,2,0.6,0,43
Neutral,4,2,0.05,-1,0,0.317,2,0.05,0,44
Neutral,4,2,0.4,-1,0,0.35,2,0.4,0,45
Neutral,4,2,0.1,1,0,0.583,2,0.1,1,46
Neutral,4,2,0,-1,0,0.35,2,0,0,47
Neutral,4,2,0,-1,1,0.717,2,0,0,48
Neutral,4,2,0.05,-1,0,0.367,2,0.05,0,49
Neutral,4,2,0.1,1,0,0.317,2,0.1,1,50
Neutral,4,2,0,-1,0,0.783,2,0,0,51
Neutral,4,2,0,1,1,0.367,2,0,1,52
Neutral,4,2,0.4,1,1,0.383,2,0.4,1,53
Neutral,4,2,0,-1,0,0.383,2,0,0,54
Neutral,4,2,0.4,-1,0,0.383,2,0.4,0,55
Neutral,4,2,0.2,1,1,0.333,2,0.2,1,56
Neutral,4,2,0.6,-1,0,0.35,2,0.6,0,57
Neutral,4,2,0.4,1,1,0.333,2,0.4,1,58
Neutral,4,2,0.4,-1,0,0.334,2,0.4,0,59
Neutral,4,2,0.2,1,1,0.367,2,0.2,1,60
Neutral,4,3,0.2,1,1,0.55,2,0.2,1,1
Neutral,4,3,0.1,-1,0,0.45,2,0.1,0,2
Neutral,4,3,0.1,-1,0,0.333,2,0.1,0,3
Neutral,4,3,0.2,-1,0,0.4,2,0.2,0,4
Neutral,4,3,0.1,-1,0,0.7,2,0.1,0,5
Neutral,4,3,0,-1,0,0.667,2,0,0,6
Neutral,4,3,0.6,-1,0,0.35,2,0.6,0,7
Neutral,4,3,0.6,-1,0,0.3,2,0.6,0,8
Neutral,4,3,0,1,1,0.4,2,0,1,9
Neutral,4,3,0.4,1,1,0.367,2,0.4,1,10
Neutral,4,3,0,-1,0,0.317,2,0,0,11
Neutral,4,3,0.6,-1,0,0.367,2,0.6,0,12
Neutral,4,3,0.4,1,1,0.3,2,0.4,1,13
Neutral,4,3,0.6,1,1,0.35,2,0.6,1,14
Neutral,4,3,0,-1,0,0.417,2,0,0,15
Neutral,4,3,0.6,1,1,0.517,2,0.6,1,16
Neutral,4,3,0.4,-1,0,0.333,2,0.4,0,17
Neutral,4,3,0.4,-1,0,0.35,2,0.4,0,18
Neutral,4,3,0.2,1,1,0.3,2,0.2,1,19
Neutral,4,3,0.05,1,1,0.417,2,0.05,1,20
Neutral,4,3,0.05,-1,0,0.35,2,0.05,0,21
Neutral,4,3,0.1,-1,0,0.333,2,0.1,0,22
Neutral,4,3,0,1,1,1.15,2,0,1,23
Neutral,4,3,0,-1,0,0.4,2,0,0,24
Neutral,4,3,0.1,1,1,0.283,2,0.1,1,25
Neutral,4,3,0.4,1,1,0.333,2,0.4,1,26
Neutral,4,3,0.4,1,1,0.333,2,0.4,1,27
Neutral,4,3,0.05,-1,0,0.333,2,0.05,0,28
Neutral,4,3,0.05,-1,0,0.317,2,0.05,0,29
Neutral,4,3,0.05,-1,1,0.483,2,0.05,0,30
Neutral,4,3,0.2,1,1,0.283,2,0.2,1,31
Neutral,4,3,0,-1,0,0.25,2,0,0,32
Neutral,4,3,0.2,-1,0,0.2,2,0.2,0,33
Neutral,4,3,0.2,-1,0,0.317,2,0.2,0,34
Neutral,4,3,0.1,1,1,0.317,2,0.1,1,35
Neutral,4,3,0.1,1,0,0.45,2,0.1,1,36
Neutral,4,3,0.1,-1,0,0.3,2,0.1,0,37
Neutral,4,3,0.1,-1,0,0.233,2,0.1,0,38
Neutral,4,3,0,-1,0,0.25,2,0,0,39
Neutral,4,3,0.6,-1,0,0.334,2,0.6,0,40
Neutral,4,3,0.05,-1,0,0.383,2,0.05,0,41
Neutral,4,3,0.6,1,1,0.317,2,0.6,1,42
Neutral,4,3,0.2,1,1,0.233,2,0.2,1,43
Neutral,4,3,0.2,-1,0,0.25,2,0.2,0,44
Neutral,4,3,0.2,1,1,0.267,2,0.2,1,45
Neutral,4,3,0.4,-1,0,0.35,2,0.4,0,46
Neutral,4,3,0.1,1,1,0.3,2,0.1,1,47
Neutral,4,3,0.05,1,1,0.2,2,0.05,1,48
Neutral,4,3,0.4,-1,0,0.25,2,0.4,0,49
Neutral,4,3,0.6,-1,0,0.283,2,0.6,0,50
Neutral,4,3,0.6,-1,0,0.283,2,0.6,0,51
Neutral,4,3,0.2,1,1,0.533,2,0.2,1,52
Neutral,4,3,0.6,-1,0,0.433,2,0.6,0,53
Neutral,4,3,0,-1,1,0.317,2,0,0,54
Neutral,4,3,0.05,1,0,0.333,2,0.05,1,55
Neutral,4,3,0.05,-1,1,0.35,2,0.05,0,56
Neutral,4,3,0.4,-1,0,0.333,2,0.4,0,57
Neutral,4,3,0,1,0,0.35,2,0,1,58
Neutral,4,3,0.05,-1,0,0.317,2,0.05,0,59
Neutral,4,3,0.4,1,1,0.65,2,0.4,1,60
Neutral,4,4,0.05,1,0,0.65,2,0.05,1,1
Neutral,4,4,0.2,-1,0,0.433,2,0.2,0,2
Neutral,4,4,0.6,1,1,0.5,2,0.6,1,3
Neutral,4,4,0,-1,0,0.35,2,0,0,4
Neutral,4,4,0.1,-1,0,0.35,2,0.1,0,5
Neutral,4,4,0.2,1,1,0.483,2,0.2,1,6
Neutral,4,4,0.2,1,1,0.5,2,0.2,1,7
Neutral,4,4,0.6,1,1,0.4,2,0.6,1,8
Neutral,4,4,0.4,1,1,0.5,2,0.4,1,9
Neutral,4,4,0.05,1,0,0.483,2,0.05,1,10
Neutral,4,4,0.6,-1,0,0.367,2,0.6,0,11
Neutral,4,4,0.6,1,1,0.35,2,0.6,1,12
Neutral,4,4,0.1,1,1,0.45,2,0.1,1,13
Neutral,4,4,0,1,0,0.783,2,0,1,14
Neutral,4,4,0.6,1,1,0.417,2,0.6,1,15
Neutral,4,4,0.05,-1,0,0.4,2,0.05,0,16
Neutral,4,4,0.6,1,1,0.35,2,0.6,1,17
Neutral,4,4,0.6,-1,0,0.383,2,0.6,0,18
Neutral,4,4,0.4,1,1,0.317,2,0.4,1,19
Neutral,4,4,0.2,1,1,0.4,2,0.2,1,20
Neutral,4,4,0.6,-1,0,0.383,2,0.6,0,21
Neutral,4,4,0,1,1,0.45,2,0,1,22
Neutral,4,4,0,-1,1,0.567,2,0,0,23
Neutral,4,4,0.2,-1,0,0.383,2,0.2,0,24
Neutral,4,4,0.4,-1,0,0.333,2,0.4,0,25
Neutral,4,4,0.4,1,1,0.35,2,0.4,1,26
Neutral,4,4,0.05,1,1,0.35,2,0.05,1,27
Neutral,4,4,0.4,1,1,0.35,2,0.4,1,28
Neutral,4,4,0,1,1,0.467,2,0,1,29
Neutral,4,4,0,1,0,0.383,2,0,1,30
Neutral,4,4,0.05,1,1,0.317,2,0.05,1,31
Neutral,4,4,0.4,1,1,0.333,2,0.4,1,32
Neutral,4,4,0.05,1,1,0.333,2,0.05,1,33
Neutral,4,4,0.4,-1,0,0.35,2,0.4,0,34
Neutral,4,4,0,-1,0,1.5,2,0,0,35
Neutral,4,4,0.6,-1,0,0.3,2,0.6,0,36
Neutral,4,4,0.6,1,1,0.3,2,0.6,1,37
Neutral,4,4,0,-1,0,0.333,2,0,0,38
Neutral,4,4,0.4,1,1,0.267,2,0.4,1,39
Neutral,4,4,0.05,-1,0,0.3,2,0.05,0,40
Neutral,4,4,0,-1,1,0.3,2,0,0,41
Neutral,4,4,0.1,-1,0,0.283,2,0.1,0,42
Neutral,4,4,0.1,1,1,0.283,2,0.1,1,43
Neutral,4,4,0.4,-1,0,0.367,2,0.4,0,44
Neutral,4,4,0.05,1,1,1.05,2,0.05,1,45
Neutral,4,4,0.2,-1,0,0.417,2,0.2,0,46
Neutral,4,4,0,1,1,0.417,2,0,1,47
Neutral,4,4,0.05,-1,0,0.3,2,0.05,0,48
Neutral,4,4,0.2,-1,0,0.35,2,0.2,0,49
Neutral,4,4,0.2,1,1,0.333,2,0.2,1,50
Neutral,4,4,0.2,1,1,0.267,2,0.2,1,51
Neutral,4,4,0.1,-1,0,0.383,2,0.1,0,52
Neutral,4,4,0.1,-1,1,0.283,2,0.1,0,53
Neutral,4,4,0.1,1,1,0.267,2,0.1,1,54
Neutral,4,4,0.1,1,1,0.3,2,0.1,1,55
Neutral,4,4,0.1,1,1,0.35,2,0.1,1,56
Neutral,4,4,0.05,-1,1,0.45,2,0.05,0,57
Neutral,4,4,0.2,-1,0,0.417,2,0.2,0,58
Neutral,4,4,0.4,-1,0,0.383,2,0.4,0,59
Neutral,4,4,0.1,-1,0,0.45,2,0.1,0,60
Neutral,4,5,0.4,-1,0,0.8,2,0.4,0,1
Neutral,4,5,0.2,1,1,0.5,2,0.2,1,2
Neutral,4,5,0.4,-1,0,0.417,2,0.4,0,3
Neutral,4,5,0.6,1,1,0.383,2,0.6,1,4
Neutral,4,5,0.05,-1,0,0.383,2,0.05,0,5
Neutral,4,5,0,-1,0,0.45,2,0,0,6
Neutral,4,5,0.6,1,1,0.383,2,0.6,1,7
Neutral,4,5,0.6,-1,0,0.367,2,0.6,0,8
Neutral,4,5,0.4,1,1,0.317,2,0.4,1,9
Neutral,4,5,0,1,0,0.45,2,0,1,10
Neutral,4,5,0,-1,0,0.4,2,0,0,11
Neutral,4,5,0,-1,1,0.567,2,0,0,12
Neutral,4,5,0.2,-1,0,0.4,2,0.2,0,13
Neutral,4,5,0.2,-1,0,0.384,2,0.2,0,14
Neutral,4,5,0.1,-1,0,0.35,2,0.1,0,15
Neutral,4,5,0.05,1,1,0.383,2,0.05,1,16
Neutral,4,5,0.6,-1,0,0.333,2,0.6,0,17
Neutral,4,5,0,1,0,0.317,2,0,1,18
Neutral,4,5,0.2,1,1,0.317,2,0.2,1,19
Neutral,4,5,0.05,-1,0,0.333,2,0.05,0,20
Neutral,4,5,0.1,1,1,0.35,2,0.1,1,21
Neutral,4,5,0.1,1,0,0.45,2,0.1,1,22
Neutral,4,5,0.4,-1,0,0.233,2,0.4,0,23
Neutral,4,5,0.6,-1,0,0.3,2,0.6,0,24
Neutral,4,5,0.2,-1,0,0.383,2,0.2,0,25
Neutral,4,5,0.2,1,1,0.3,2,0.2,1,26
Neutral,4,5,0.1,1,1,0.283,2,0.1,1,27
Neutral,4,5,0.6,-1,0,0.35,2,0.6,0,28
Neutral,4,5,0.05,1,0,0.334,2,0.05,1,29
Neutral,4,5,0.2,-1,0,0.6,2,0.2,0,30
Neutral,4,5,0.05,-1,0,0.35,2,0.05,0,31
Neutral,4,5,0.4,-1,0,0.35,2,0.4,0,32
Neutral,4,5,0.1,1,0,0.35,2,0.1,1,33
Neutral,4,5,0.4,-1,0,0.3,2,0.4,0,34
Neutral,4,5,0.1,1,0,0.683,2,0.1,1,35
Neutral,4,5,0.6,1,1,0.2,2,0.6,1,36
Neutral,4,5,0,1,0,0.234,2,0,1,37
Neutral,4,5,0,-1,0,0.333,2,0,0,38
Neutral,4,5,0.05,1,0,0.4,2,0.05,1,39
Neutral,4,5,0.2,-1,0,0.3,2,0.2,0,40
Neutral,4,5,0.1,1,1,0.367,2,0.1,1,41
Neutral,4,5,0,-1,0,0.283,2,0,0,42
Neutral,4,5,0.1,1,0,0.517,2,0.1,1,43
Neutral,4,5,0.2,1,1,0.35,2,0.2,1,44
Neutral,4,5,0.05,1,1,0.583,2,0.05,1,45
Neutral,4,5,0.6,1,1,0.217,2,0.6,1,46
Neutral,4,5,0.1,-1,0,0.284,2,0.1,0,47
Neutral,4,5,0.4,-1,0,0.317,2,0.4,0,48
Neutral,4,5,0.6,1,1,0.217,2,0.6,1,49
Neutral,4,5,0.6,1,1,0.183,2,0.6,1,50
Neutral,4,5,0.2,-1,0,0.433,2,0.2,0,51
Neutral,4,5,0.4,1,1,0.317,2,0.4,1,52
Neutral,4,5,0.05,1,1,0.833,2,0.05,1,53
Neutral,4,5,0.1,1,0,0.284,2,0.1,1,54
Neutral,4,5,0.4,1,1,0.317,2,0.4,1,55
Neutral,4,5,0.4,-1,0,0.367,2,0.4,0,56
Neutral,4,5,0,-1,1,0.35,2,0,0,57
Neutral,4,5,0,-1,0,0.467,2,0,0,58
Neutral,4,5,0.05,1,1,0.3,2,0.05,1,59
Neutral,4,5,0.05,1,0,0.4,2,0.05,1,60
Neutral,4,6,0.4,-1,0,0.467,2,0.4,0,1
Neutral,4,6,0.2,-1,0,0.317,2,0.2,0,2
Neutral,4,6,0.6,-1,0,0.367,2,0.6,0,3
Neutral,4,6,0.05,-1,0,0.367,2,0.05,0,4
Neutral,4,6,0.6,1,1,0.317,2,0.6,1,5
Neutral,4,6,0.4,-1,0,0.317,2,0.4,0,6
Neutral,4,6,0,1,0,0.667,2,0,1,7
Neutral,4,6,0.4,-1,0,0.333,2,0.4,0,8
Neutral,4,6,0.2,-1,0,0.367,2,0.2,0,9
Neutral,4,6,0,1,1,0.733,2,0,1,10
Neutral,4,6,0.6,-1,0,0.3,2,0.6,0,11
Neutral,4,6,0.2,1,1,0.45,2,0.2,1,12
Neutral,4,6,0.2,1,1,0.183,2,0.2,1,13
Neutral,4,6,0.2,-1,0,0.267,2,0.2,0,14
Neutral,4,6,0.4,-1,0,0.25,2,0.4,0,15
Neutral,4,6,0.1,-1,0,0.284,2,0.1,0,16
Neutral,4,6,0.4,-1,0,0.25,2,0.4,0,17
Neutral,4,6,0.05,1,1,0.267,2,0.05,1,18
Neutral,4,6,0.4,-1,0,0.3,2,0.4,0,19
Neutral,4,6,0,1,1,0.25,2,0,1,20
Neutral,4,6,0.1,-1,0,0.267,2,0.1,0,21
Neutral,4,6,0.05,1,0,0.317,2,0.05,1,22
Neutral,4,6,0.4,1,1,0.317,2,0.4,1,23
Neutral,4,6,0,-1,0,0.567,2,0,0,24
Neutral,4,6,0.05,-1,0,0.333,2,0.05,0,25
Neutral,4,6,0.05,-1,0,0.25,2,0.05,0,26
Neutral,4,6,0.6,1,1,0.35,2,0.6,1,27
Neutral,4,6,0.05,-1,0,0.283,2,0.05,0,28
Neutral,4,6,0,-1,1,0.3,2,0,0,29
Neutral,4,6,0,1,1,0.817,2,0,1,30
Neutral,4,6,0,1,0,0.267,2,0,1,31
Neutral,4,6,0.1,1,1,0.233,2,0.1,1,32
Neutral,4,6,0.4,1,1,0.183,2,0.4,1,33
Neutral,4,6,0.6,1,1,0.134,2,0.6,1,34
Neutral,4,6,0.2,1,1,0.283,2,0.2,1,35
Neutral,4,6,0.05,-1,0,0.35,2,0.05,0,36
Neutral,4,6,0.05,-1,0,0.3,2,0.05,0,37
Neutral,4,6,0.1,-1,0,0.2,2,0.1,0,38
Neutral,4,6,0.6,-1,0,0.25,2,0.6,0,39
Neutral,4,6,0,-1,0,0.25,2,0,0,40
Neutral,4,6,0.1,1,1,0.317,2,0.1,1,41
Neutral,4,6,0.4,-1,0,0.317,2,0.4,0,42
Neutral,4,6,0.1,-1,0,0.333,2,0.1,0,43
Neutral,4,6,0.4,1,1,0.367,2,0.4,1,44
Neutral,4,6,0.6,1,1,0.0836,2,0.6,1,45
Neutral,4,6,0.1,-1,0,0.2,2,0.1,0,46
Neutral,4,6,0.05,-1,0,0.317,2,0.05,0,47
Neutral,4,6,0.2,1,1,0.317,2,0.2,1,48
Neutral,4,6,0.6,-1,0,0.25,2,0.6,0,49
Neutral,4,6,0,-1,0,0.283,2,0,0,50
Neutral,4,6,0.6,1,1,0.217,2,0.6,1,51
Neutral,4,6,0.05,-1,0,0.283,2,0.05,0,52
Neutral,4,6,0,1,0,0.267,2,0,1,53
Neutral,4,6,0.1,1,1,0.283,2,0.1,1,54
Neutral,4,6,0.2,-1,0,0.333,2,0.2,0,55
Neutral,4,6,0.2,1,1,0.383,2,0.2,1,56
Neutral,4,6,0.2,1,1,0.283,2,0.2,1,57
Neutral,4,6,0.6,1,1,0.317,2,0.6,1,58
Neutral,4,6,0.1,1,1,0.267,2,0.1,1,59
Neutral,4,6,0.1,1,0,0.233,2,0.1,1,60
Neutral,4,7,0.1,1,1,0.333,2,0.1,1,1
Neutral,4,7,0,-1,1,0.3,2,0,0,2
Neutral,4,7,0.05,1,1,0.5,2,0.05,1,3
Neutral,4,7,0.1,-1,0,0.267,2,0.1,0,4
Neutral,4,7,0.1,-1,0,0.267,2,0.1,0,5
Neutral,4,7,0,1,1,0.333,2,0,1,6
Neutral,4,7,0.6,-1,0,0.3,2,0.6,0,7
Neutral,4,7,0.4,1,1,0.383,2,0.4,1,8
Neutral,4,7,0.2,1,1,0.367,2,0.2,1,9
Neutral,4,7,0.4,-1,0,0.283,2,0.4,0,10
Neutral,4,7,0.05,1,0,0.25,2,0.05,1,11
Neutral,4,7,0.2,1,1,0.667,2,0.2,1,12
Neutral,4,7,0.6,-1,0,0.3,2,0.6,0,13
Neutral,4,7,0.05,-1,0,0.517,2,0.05,0,14
Neutral,4,7,0.2,1,1,0.283,2,0.2,1,15
Neutral,4,7,0.4,-1,0,0.267,2,0.4,0,16
Neutral,4,7,0,1,1,0.4,2,0,1,17
Neutral,4,7,0.6,1,1,0.317,2,0.6,1,18
Neutral,4,7,0.1,-1,0,0.333,2,0.1,0,19
Neutral,4,7,0.4,-1,0,0.25,2,0.4,0,20
Neutral,4,7,0.2,1,1,0.333,2,0.2,1,21
Neutral,4,7,0,1,0,0.3,2,0,1,22
Neutral,4,7,0.2,-1,0,0.317,2,0.2,0,23
Neutral,4,7,0.6,-1,0,0.267,2,0.6,0,24
Neutral,4,7,0.6,-1,0,0.283,2,0.6,0,25
Neutral,4,7,0.4,-1,0,0.367,2,0.4,0,26
Neutral,4,7,0.4,1,1,0.433,2,0.4,1,27
Neutral,4,7,0.2,1,1,0.267,2,0.2,1,28
Neutral,4,7,0.4,1,1,0.233,2,0.4,1,29
Neutral,4,7,0,1,1,0.3,2,0,1,30
Neutral,4,7,0.6,-1,0,0.367,2,0.6,0,31
Neutral,4,7,0.6,-1,0,0.317,2,0.6,0,32
Neutral,4,7,0.05,1,1,0.267,2,0.05,1,33
Neutral,4,7,0.1,-1,0,0.317,2,0.1,0,34
Neutral,4,7,0.05,1,1,0.234,2,0.05,1,35
Neutral,4,7,0.1,1,1,0.217,2,0.1,1,36
Neutral,4,7,0.6,1,1,0.217,2,0.6,1,37
Neutral,4,7,0.2,-1,0,0.333,2,0.2,0,38
Neutral,4,7,0.05,1,1,0.3,2,0.05,1,39
Neutral,4,7,0,-1,1,0.167,2,0,0,40
Neutral,4,7,0.1,-1,0,0.184,2,0.1,0,41
Neutral,4,7,0,1,0,0.517,2,0,1,42
Neutral,4,7,0.05,-1,0,0.25,2,0.05,0,43
Neutral,4,7,0,-1,1,0.183,2,0,0,44
Neutral,4,7,0.4,1,1,0.3,2,0.4,1,45
Neutral,4,7,0.2,-1,0,0.35,2,0.2,0,46
Neutral,4,7,0.6,1,1,0.3,2,0.6,1,47
Neutral,4,7,0.2,1,1,0.3,2,0.2,1,48
Neutral,4,7,0.1,1,1,0.333,2,0.1,1,49
Neutral,4,7,0,1,0,0.55,2,0,1,50
Neutral,4,7,0.05,-1,0,0.184,2,0.05,0,51
Neutral,4,7,0.1,-1,0,0.184,2,0.1,0,52
Neutral,4,7,0.2,-1,0,0.267,2,0.2,0,53
Neutral,4,7,0.6,-1,0,0.217,2,0.6,0,54
Neutral,4,7,0.4,-1,0,0.317,2,0.4,0,55
Neutral,4,7,0.4,-1,0,0.2,2,0.4,0,56
Neutral,4,7,0.05,1,0,0.3,2,0.05,1,57
Neutral,4,7,0,-1,1,0.283,2,0,0,58
Neutral,4,7,0.1,1,1,0.35,2,0.1,1,59
Neutral,4,7,0.05,1,1,0.283,2,0.05,1,60
Neutral,4,8,0.4,-1,0,0.467,2,0.4,0,1
Neutral,4,8,0.1,-1,0,0.367,2,0.1,0,2
Neutral,4,8,0,1,0,0.4,2,0,1,3
Neutral,4,8,0.2,1,1,0.4,2,0.2,1,4
Neutral,4,8,0.05,1,1,0.483,2,0.05,1,5
Neutral,4,8,0.2,-1,0,0.383,2,0.2,0,6
Neutral,4,8,0.05,1,1,0.6,2,0.05,1,7
Neutral,4,8,0.1,1,1,0.383,2,0.1,1,8
Neutral,4,8,0.4,1,1,0.433,2,0.4,1,9
Neutral,4,8,0.2,-1,0,0.467,2,0.2,0,10
Neutral,4,8,0.1,-1,1,0.533,2,0.1,0,11
Neutral,4,8,0.4,-1,0,0.433,2,0.4,0,12
Neutral,4,8,0.4,-1,0,0.317,2,0.4,0,13
Neutral,4,8,0.4,1,1,0.383,2,0.4,1,14
Neutral,4,8,0.05,1,0,0.283,2,0.05,1,15
Neutral,4,8,0.6,1,1,0.267,2,0.6,1,16
Neutral,4,8,0.1,1,1,0.317,2,0.1,1,17
Neutral,4,8,0,1,1,0.533,2,0,1,18
Neutral,4,8,0.05,-1,0,0.35,2,0.05,0,19
Neutral,4,8,0.6,-1,0,0.383,2,0.6,0,20
Neutral,4,8,0,1,1,0.334,2,0,1,21
Neutral,4,8,0.2,-1,0,0.3,2,0.2,0,22
Neutral,4,8,0,-1,1,0.25,2,0,0,23
Neutral,4,8,0.6,-1,0,0.234,2,0.6,0,24
Neutral,4,8,0,-1,0,0.533,2,0,0,25
Neutral,4,8,0,-1,0,0.433,2,0,0,26
Neutral,4,8,0.2,1,1,0.3,2,0.2,1,27
Neutral,4,8,0.4,-1,0,0.283,2,0.4,0,28
Neutral,4,8,0.6,-1,0,0.333,2,0.6,0,29
Neutral,4,8,0.6,1,1,0.2,2,0.6,1,30
Neutral,4,8,0.6,-1,0,0.3,2,0.6,0,31
Neutral,4,8,0.05,-1,1,0.4,2,0.05,0,32
Neutral,4,8,0.05,-1,0,0.333,2,0.05,0,33
Neutral,4,8,0.2,1,1,0.2,2,0.2,1,34
Neutral,4,8,0.6,-1,0,0.3,2,0.6,0,35
Neutral,4,8,0.6,-1,0,0.333,2,0.6,0,36
Neutral,4,8,0.05,-1,0,0.3,2,0.05,0,37
Neutral,4,8,0.6,1,1,0.35,2,0.6,1,38
Neutral,4,8,0,1,1,0.7,2,0,1,39
Neutral,4,8,0.4,-1,0,0.167,2,0.4,0,40
Neutral,4,8,0.6,-1,0,0.367,2,0.6,0,41
Neutral,4,8,0.2,-1,0,0.367,2,0.2,0,42
Neutral,4,8,0,1,1,0.35,2,0,1,43
Neutral,4,8,0.05,-1,1,0.233,2,0.05,0,44
Neutral,4,8,0.05,1,1,0.317,2,0.05,1,45
Neutral,4,8,0.2,1,1,0.367,2,0.2,1,46
Neutral,4,8,0.1,-1,0,0.4,2,0.1,0,47
Neutral,4,8,0.4,-1,0,0.317,2,0.4,0,48
Neutral,4,8,0.1,-1,0,0.517,2,0.1,0,49
Neutral,4,8,0.2,-1,0,0.4,2,0.2,0,50
Neutral,4,8,0,-1,1,0.417,2,0,0,51
Neutral,4,8,0.1,1,1,0.317,2,0.1,1,52
Neutral,4,8,0.4,1,1,0.333,2,0.4,1,53
Neutral,4,8,0.1,-1,0,0.65,2,0.1,0,54
Neutral,4,8,0.05,-1,0,0.25,2,0.05,0,55
Neutral,4,8,0.1,1,1,0.35,2,0.1,1,56
Neutral,4,8,0.1,-1,0,0.333,2,0.1,0,57
Neutral,4,8,0,1,1,0.4,2,0,1,58
Neutral,4,8,0.2,1,1,0.383,2,0.2,1,59
Neutral,4,8,0.4,-1,0,0.384,2,0.4,0,60
Neutral,4,9,0.6,1,1,0.55,2,0.6,1,1
Neutral,4,9,0.2,1,1,0.417,2,0.2,1,2
Neutral,4,9,0,1,1,0.5,2,0,1,3
Neutral,4,9,0.4,-1,0,0.4,2,0.4,0,4
Neutral,4,9,0.05,1,1,0.434,2,0.05,1,5
Neutral,4,9,0.4,1,1,0.417,2,0.4,1,6
Neutral,4,9,0.6,1,1,0.367,2,0.6,1,7
Neutral,4,9,0.05,1,1,0.333,2,0.05,1,8
Neutral,4,9,0,1,0,0.383,2,0,1,9
Neutral,4,9,0,1,1,1.13,2,0,1,10
Neutral,4,9,0.4,1,1,0.383,2,0.4,1,11
Neutral,4,9,0.4,1,1,0.35,2,0.4,1,12
Neutral,4,9,0.6,1,1,0.317,2,0.6,1,13
Neutral,4,9,0.1,1,1,0.217,2,0.1,1,14
Neutral,4,9,0.4,1,1,0.233,2,0.4,1,15
Neutral,4,9,0.2,1,1,0.3,2,0.2,1,16
Neutral,4,9,0,1,0,0.45,2,0,1,17
Neutral,4,9,0.2,-1,0,0.333,2,0.2,0,18
Neutral,4,9,0,1,1,0.25,2,0,1,19
Neutral,4,9,0.2,-1,0,0.4,2,0.2,0,20
Neutral,4,9,0.1,1,1,0.383,2,0.1,1,21
Neutral,4,9,0.2,1,1,0.333,2,0.2,1,22
Neutral,4,9,0.05,-1,0,0.683,2,0.05,0,23
Neutral,4,9,0.6,-1,0,0.367,2,0.6,0,24
Neutral,4,9,0.1,1,1,0.383,2,0.1,1,25
Neutral,4,9,0.4,1,1,0.333,2,0.4,1,26
Neutral,4,9,0,1,0,0.35,2,0,1,27
Neutral,4,9,0.4,1,1,0.333,2,0.4,1,28
Neutral,4,9,0.2,1,1,0.317,2,0.2,1,29
Neutral,4,9,0.05,-1,0,0.383,2,0.05,0,30
Neutral,4,9,0.05,1,1,0.384,2,0.05,1,31
Neutral,4,9,0.05,1,1,0.317,2,0.05,1,32
Neutral,4,9,0.2,1,1,0.333,2,0.2,1,33
Neutral,4,9,0.4,-1,0,0.35,2,0.4,0,34
Neutral,4,9,0.4,-1,0,0.367,2,0.4,0,35
Neutral,4,9,0.05,-1,1,0.667,2,0.05,0,36
Neutral,4,9,0.05,1,1,0.3,2,0.05,1,37
Neutral,4,9,0.4,-1,0,0.384,2,0.4,0,38
Neutral,4,9,0.2,1,1,0.25,2,0.2,1,39
Neutral,4,9,0.1,-1,0,0.367,2,0.1,0,40
Neutral,4,9,0.05,1,1,0.234,2,0.05,1,41
Neutral,4,9,0.2,-1,0,0.317,2,0.2,0,42
Neutral,4,9,0.1,1,1,0.317,2,0.1,1,43
Neutral,4,9,0.1,1,1,0.317,2,0.1,1,44
Neutral,4,9,0.6,1,1,0.333,2,0.6,1,45
Neutral,4,9,0.1,-1,0,0.333,2,0.1,0,46
Neutral,4,9,0.6,1,1,0.333,2,0.6,1,47
Neutral,4,9,0.1,-1,0,0.283,2,0.1,0,48
Neutral,4,9,0.05,-1,0,0.233,2,0.05,0,49
Neutral,4,9,0,1,1,0.267,2,0,1,50
Neutral,4,9,0.6,-1,0,0.25,2,0.6,0,51
Neutral,4,9,0.6,1,1,0.25,2,0.6,1,52
Neutral,4,9,0.6,1,1,0.3,2,0.6,1,53
Neutral,4,9,0,-1,0,0.217,2,0,0,54
Neutral,4,9,0.6,-1,0,0.317,2,0.6,0,55
Neutral,4,9,0,1,1,0.7,2,0,1,56
Neutral,4,9,0,1,1,0.2,2,0,1,57
Neutral,4,9,0.1,1,1,0.333,2,0.1,1,58
Neutral,4,9,0.1,1,1,0.35,2,0.1,1,59
Neutral,4,9,0.2,-1,0,0.35,2,0.2,0,60
Neutral,4,10,0,-1,1,0.45,2,0,0,1
Neutral,4,10,0.1,-1,1,0.384,2,0.1,0,2
Neutral,4,10,0.05,-1,1,0.783,2,0.05,0,3
Neutral,4,10,0.05,-1,1,0.233,2,0.05,0,4
Neutral,4,10,0.4,1,1,0.383,2,0.4,1,5
Neutral,4,10,0.4,1,1,0.317,2,0.4,1,6
Neutral,4,10,0.6,-1,0,0.417,2,0.6,0,7
Neutral,4,10,0.6,-1,0,0.383,2,0.6,0,8
Neutral,4,10,0.05,1,1,0.45,2,0.05,1,9
Neutral,4,10,0.05,-1,1,0.434,2,0.05,0,10
Neutral,4,10,0.2,1,1,0.283,2,0.2,1,11
Neutral,4,10,0.1,1,1,0.4,2,0.1,1,12
Neutral,4,10,0.1,-1,0,0.35,2,0.1,0,13
Neutral,4,10,0.1,-1,0,0.25,2,0.1,0,14
Neutral,4,10,0.1,-1,0,0.383,2,0.1,0,15
Neutral,4,10,0.2,-1,0,0.35,2,0.2,0,16
Neutral,4,10,0,-1,0,0.817,2,0,0,17
Neutral,4,10,0.4,-1,0,0.267,2,0.4,0,18
Neutral,4,10,0.6,-1,0,0.267,2,0.6,0,19
Neutral,4,10,0.1,1,1,0.3,2,0.1,1,20
Neutral,4,10,0.2,-1,0,0.284,2,0.2,0,21
Neutral,4,10,0.4,-1,0,0.4,2,0.4,0,22
Neutral,4,10,0.2,-1,0,0.3,2,0.2,0,23
Neutral,4,10,0,-1,0,0.383,2,0,0,24
Neutral,4,10,0.6,-1,0,0.3,2,0.6,0,25
Neutral,4,10,0.05,-1,0,0.383,2,0.05,0,26
Neutral,4,10,0.6,-1,0,0.333,2,0.6,0,27
Neutral,4,10,0,1,0,0.5,2,0,1,28
Neutral,4,10,0,1,1,0.417,2,0,1,29
Neutral,4,10,0.2,-1,0,0.367,2,0.2,0,30
Neutral,4,10,0.1,-1,1,0.383,2,0.1,0,31
Neutral,4,10,0.05,-1,0,0.35,2,0.05,0,32
Neutral,4,10,0.4,1,1,0.367,2,0.4,1,33
Neutral,4,10,0.6,1,1,0.233,2,0.6,1,34
Neutral,4,10,0.05,-1,0,0.35,2,0.05,0,35
Neutral,4,10,0.4,-1,0,0.367,2,0.4,0,36
Neutral,4,10,0.4,-1,0,0.35,2,0.4,0,37
Neutral,4,10,0.05,1,1,0.383,2,0.05,1,38
Neutral,4,10,0.4,1,1,0.217,2,0.4,1,39
Neutral,4,10,0.2,-1,0,0.35,2,0.2,0,40
Neutral,4,10,0,1,0,0.383,2,0,1,41
Neutral,4,10,0.2,1,1,0.383,2,0.2,1,42
Neutral,4,10,0.4,-1,0,0.283,2,0.4,0,43
Neutral,4,10,0.4,-1,0,0.333,2,0.4,0,44
Neutral,4,10,0,1,1,0.317,2,0,1,45
Neutral,4,10,0.1,1,1,0.367,2,0.1,1,46
Neutral,4,10,0.05,-1,1,0.367,2,0.05,0,47
Neutral,4,10,0.2,-1,0,0.234,2,0.2,0,48
Neutral,4,10,0.2,-1,0,0.3,2,0.2,0,49
Neutral,4,10,0,1,1,0.267,2,0,1,50
Neutral,4,10,0.6,-1,0,0.25,2,0.6,0,51
Neutral,4,10,0,-1,0,0.433,2,0,0,52
Neutral,4,10,0.6,-1,0,0.317,2,0.6,0,53
Neutral,4,10,0,1,1,0.317,2,0,1,54
Neutral,4,10,0.6,-1,0,0.333,2,0.6,0,55
Neutral,4,10,0.2,1,1,0.367,2,0.2,1,56
Neutral,4,10,0.6,-1,0,0.367,2,0.6,0,57
Neutral,4,10,0.1,1,1,0.317,2,0.1,1,58
Neutral,4,10,0.05,1,1,0.467,2,0.05,1,59
Neutral,4,10,0.1,-1,0,0.367,2,0.1,0,60
Neutral,1,1,0.05,-1,1,1.02,3,0.05,0,1
Neutral,1,1,0.6,1,1,0.65,3,0.6,1,2
Neutral,1,1,0.1,-1,1,0.65,3,0.1,0,3
Neutral,1,1,0.4,-1,0,0.567,3,0.4,0,4
Neutral,1,1,0.4,-1,0,0.667,3,0.4,0,5
Neutral,1,1,0.1,-1,1,0.783,3,0.1,0,6
Neutral,1,1,0.4,-1,0,0.867,3,0.4,0,7
Neutral,1,1,0.05,-1,0,0.7,3,0.05,0,8
Neutral,1,1,0.2,1,1,0.417,3,0.2,1,9
Neutral,1,1,0,-1,0,0.483,3,0,0,10
Neutral,1,1,0.4,-1,0,0.367,3,0.4,0,11
Neutral,1,1,0.2,-1,0,0.4,3,0.2,0,12
Neutral,1,1,0.05,1,1,0.617,3,0.05,1,13
Neutral,1,1,0.6,-1,0,0.45,3,0.6,0,14
Neutral,1,1,0.6,-1,0,0.4,3,0.6,0,15
Neutral,1,1,0,-1,0,0.55,3,0,0,16
Neutral,1,1,0,-1,1,0.65,3,0,0,17
Neutral,1,1,0.2,-1,0,0.7,3,0.2,0,18
Neutral,1,1,0.2,1,1,0.417,3,0.2,1,19
Neutral,1,1,0.4,1,1,0.517,3,0.4,1,20
Neutral,1,1,0.1,-1,0,0.483,3,0.1,0,21
Neutral,1,1,0.05,1,1,0.6,3,0.05,1,22
Neutral,1,1,0.05,-1,0,0.683,3,0.05,0,23
Neutral,1,1,0.05,-1,0,0.583,3,0.05,0,24
Neutral,1,1,0.2,1,1,0.633,3,0.2,1,25
Neutral,1,1,0.4,1,1,0.583,3,0.4,1,26
Neutral,1,1,0.4,-1,0,0.433,3,0.4,0,27
Neutral,1,1,0.2,1,1,0.433,3,0.2,1,28
Neutral,1,1,0,1,1,0.567,3,0,1,29
Neutral,1,1,0.1,-1,0,0.517,3,0.1,0,30
Neutral,1,1,0.05,1,1,0.717,3,0.05,1,31
Neutral,1,1,0,1,1,0.683,3,0,1,32
Neutral,1,1,0.4,-1,0,0.5,3,0.4,0,33
Neutral,1,1,0.4,1,1,0.483,3,0.4,1,34
Neutral,1,1,0.6,-1,0,0.367,3,0.6,0,35
Neutral,1,1,0.4,-1,0,0.433,3,0.4,0,36
Neutral,1,1,0.6,-1,0,0.467,3,0.6,0,37
Neutral,1,1,0.1,1,1,0.583,3,0.1,1,38
Neutral,1,1,0.6,-1,0,0.383,3,0.6,0,39
Neutral,1,1,0.1,1,1,0.467,3,0.1,1,40
Neutral,1,1,0,-1,1,0.7,3,0,0,41
Neutral,1,1,0.1,-1,0,0.483,3,0.1,0,42
Neutral,1,1,0.05,1,1,0.6,3,0.05,1,43
Neutral,1,1,0.05,1,0,0.567,3,0.05,1,44
Neutral,1,1,0.05,1,0,0.683,3,0.05,1,45
Neutral,1,1,0.2,-1,0,0.433,3,0.2,0,46
Neutral,1,1,0.2,-1,1,0.75,3,0.2,0,47
Neutral,1,1,0,-1,0,0.717,3,0,0,48
Neutral,1,1,0,-1,1,0.717,3,0,0,49
Neutral,1,1,0.2,-1,0,0.5,3,0.2,0,50
Neutral,1,1,0.1,1,1,0.55,3,0.1,1,51
Neutral,1,1,0.6,-1,0,0.417,3,0.6,0,52
Neutral,1,1,0.1,1,1,0.45,3,0.1,1,53
Neutral,1,1,0.6,-1,0,0.334,3,0.6,0,54
Neutral,1,1,0.6,-1,0,0.383,3,0.6,0,55
Neutral,1,1,0.1,-1,0,0.617,3,0.1,0,56
Neutral,1,1,0,1,0,0.583,3,0,1,57
Neutral,1,1,0,1,0,0.75,3,0,1,58
Neutral,1,1,0.6,-1,0,0.467,3,0.6,0,59
Neutral,1,1,0.2,-1,0,0.533,3,0.2,0,60
Neutral,1,2,0.2,1,1,0.933,3,0.2,1,1
Neutral,1,2,0.2,-1,0,0.717,3,0.2,0,2
Neutral,1,2,0.1,1,0,0.683,3,0.1,1,3
Neutral,1,2,0.2,1,1,0.633,3,0.2,1,4
Neutral,1,2,0.4,1,1,0.433,3,0.4,1,5
Neutral,1,2,0.2,-1,0,0.367,3,0.2,0,6
Neutral,1,2,0.6,-1,0,0.417,3,0.6,0,7
Neutral,1,2,0.4,-1,0,0.433,3,0.4,0,8
Neutral,1,2,0.05,1,1,0.533,3,0.05,1,9
Neutral,1,2,0.05,1,0,0.55,3,0.05,1,10
Neutral,1,2,0.4,-1,0,0.55,3,0.4,0,11
Neutral,1,2,0.4,1,1,0.4,3,0.4,1,12
Neutral,1,2,0.4,1,1,0.467,3,0.4,1,13
Neutral,1,2,0,1,0,0.433,3,0,1,14
Neutral,1,2,0,1,0,0.883,3,0,1,15
Neutral,1,2,0.1,-1,0,0.667,3,0.1,0,16
Neutral,1,2,0.2,1,1,0.45,3,0.2,1,17
Neutral,1,2,0.1,1,1,0.5,3,0.1,1,18
Neutral,1,2,0.1,1,0,0.483,3,0.1,1,19
Neutral,1,2,0.6,-1,0,0.367,3,0.6,0,20
Neutral,1,2,0.6,1,1,0.467,3,0.6,1,21
Neutral,1,2,0.2,1,1,0.45,3,0.2,1,22
Neutral,1,2,0.2,-1,0,0.467,3,0.2,0,23
Neutral,1,2,0.1,1,1,0.5,3,0.1,1,24
Neutral,1,2,0,1,0,0.483,3,0,1,25
Neutral,1,2,0.4,1,1,0.45,3,0.4,1,26
Neutral,1,2,0.05,1,0,0.5,3,0.05,1,27
Neutral,1,2,0,1,0,0.55,3,0,1,28
Neutral,1,2,0,1,0,0.583,3,0,1,29
Neutral,1,2,0,1,0,0.567,3,0,1,30
Neutral,1,2,0.05,1,0,0.733,3,0.05,1,31
Neutral,1,2,0.05,-1,0,0.683,3,0.05,0,32
Neutral,1,2,0.6,1,1,0.4,3,0.6,1,33
Neutral,1,2,0.4,-1,0,0.35,3,0.4,0,34
Neutral,1,2,0.1,-1,0,0.85,3,0.1,0,35
Neutral,1,2,0.05,1,0,0.567,3,0.05,1,36
Neutral,1,2,0.4,-1,0,0.483,3,0.4,0,37
Neutral,1,2,0,1,1,0.6,3,0,1,38
Neutral,1,2,0.2,-1,0,0.433,3,0.2,0,39
Neutral,1,2,0,1,0,0.433,3,0,1,40
Neutral,1,2,0.05,-1,0,0.5,3,0.05,0,41
Neutral,1,2,0.6,1,1,0.5,3,0.6,1,42
Neutral,1,2,0.05,-1,0,0.483,3,0.05,0,43
Neutral,1,2,0.4,-1,0,0.45,3,0.4,0,44
Neutral,1,2,0.05,-1,0,0.533,3,0.05,0,45
Neutral,1,2,0.1,1,1,0.517,3,0.1,1,46
Neutral,1,2,0.05,1,1,0.483,3,0.05,1,47
Neutral,1,2,0.6,-1,0,0.433,3,0.6,0,48
Neutral,1,2,0.1,1,1,0.65,3,0.1,1,49
Neutral,1,2,0.2,1,1,0.55,3,0.2,1,50
Neutral,1,2,0.1,-1,0,0.4,3,0.1,0,51
Neutral,1,2,0,1,0,0.667,3,0,1,52
Neutral,1,2,0.6,1,1,0.483,3,0.6,1,53
Neutral,1,2,0.6,-1,0,0.383,3,0.6,0,54
Neutral,1,2,0.6,-1,0,0.567,3,0.6,0,55
Neutral,1,2,0,1,0,0.7,3,0,1,56
Neutral,1,2,0.4,1,1,0.433,3,0.4,1,57
Neutral,1,2,0.2,-1,0,0.567,3,0.2,0,58
Neutral,1,2,0.6,-1,0,0.417,3,0.6,0,59
Neutral,1,2,0.1,1,1,0.55,3,0.1,1,60
Neutral,1,3,0.05,1,1,0.867,3,0.05,1,1
Neutral,1,3,0.6,1,1,0.7,3,0.6,1,2
Neutral,1,3,0.4,1,1,0.5,3,0.4,1,3
Neutral,1,3,0.4,1,1,0.417,3,0.4,1,4
Neutral,1,3,0.1,-1,0,0.5,3,0.1,0,5
Neutral,1,3,0.2,1,1,0.533,3,0.2,1,6
Neutral,1,3,0.4,1,1,0.533,3,0.4,1,7
Neutral,1,3,0.1,-1,0,0.533,3,0.1,0,8
Neutral,1,3,0,-1,0,0.617,3,0,0,9
Neutral,1,3,0,1,0,0.583,3,0,1,10
Neutral,1,3,0.4,1,1,0.5,3,0.4,1,11
Neutral,1,3,0.6,1,1,0.433,3,0.6,1,12
Neutral,1,3,0.2,1,1,0.45,3,0.2,1,13
Neutral,1,3,0.1,1,1,0.667,3,0.1,1,14
Neutral,1,3,0.6,1,1,0.417,3,0.6,1,15
Neutral,1,3,0.2,-1,0,0.483,3,0.2,0,16
Neutral,1,3,0.05,-1,0,0.667,3,0.05,0,17
Neutral,1,3,0.1,-1,0,0.517,3,0.1,0,18
Neutral,1,3,0.1,-1,0,0.517,3,0.1,0,19
Neutral,1,3,0,-1,0,0.883,3,0,0,20
Neutral,1,3,0.2,-1,0,0.483,3,0.2,0,21
Neutral,1,3,0.05,-1,1,0.75,3,0.05,0,22
Neutral,1,3,0.2,-1,0,0.633,3,0.2,0,23
Neutral,1,3,0.05,1,1,0.667,3,0.05,1,24
Neutral,1,3,0.05,-1,0,0.6,3,0.05,0,25
Neutral,1,3,0.1,1,0,0.717,3,0.1,1,26
Neutral,1,3,0.05,-1,0,0.7,3,0.05,0,27
Neutral,1,3,0,-1,0,0.517,3,0,0,28
Neutral,1,3,0.6,-1,0,0.483,3,0.6,0,29
Neutral,1,3,0.4,-1,0,0.483,3,0.4,0,30
Neutral,1,3,0.2,-1,0,0.433,3,0.2,0,31
Neutral,1,3,0.2,1,1,0.5,3,0.2,1,32
Neutral,1,3,0.6,-1,0,0.367,3,0.6,0,33
Neutral,1,3,0.2,1,1,0.467,3,0.2,1,34
Neutral,1,3,0.1,1,0,0.367,3,0.1,1,35
Neutral,1,3,0.1,-1,1,0.9,3,0.1,0,36
Neutral,1,3,0.4,-1,0,0.6,3,0.4,0,37
Neutral,1,3,0.4,1,1,0.483,3,0.4,1,38
Neutral,1,3,0.4,1,1,0.45,3,0.4,1,39
Neutral,1,3,0.05,1,0,0.667,3,0.05,1,40
Neutral,1,3,0.6,1,1,0.483,3,0.6,1,41
Neutral,1,3,0.2,1,1,0.467,3,0.2,1,42
Neutral,1,3,0,-1,1,0.833,3,0,0,43
Neutral,1,3,0.05,-1,0,0.567,3,0.05,0,44
Neutral,1,3,0.4,-1,0,0.367,3,0.4,0,45
Neutral,1,3,0,1,0,0.533,3,0,1,46
Neutral,1,3,0,-1,0,0.583,3,0,0,47
Neutral,1,3,0.2,-1,0,0.517,3,0.2,0,48
Neutral,1,3,0.05,-1,1,0.55,3,0.05,0,49
Neutral,1,3,0.1,1,0,0.667,3,0.1,1,50
Neutral,1,3,0.4,1,1,0.667,3,0.4,1,51
Neutral,1,3,0.6,1,1,0.383,3,0.6,1,52
Neutral,1,3,0.1,1,1,0.567,3,0.1,1,53
Neutral,1,3,0,-1,0,0.533,3,0,0,54
Neutral,1,3,0,1,0,0.467,3,0,1,55
Neutral,1,3,0.6,1,1,0.517,3,0.6,1,56
Neutral,1,3,0,1,0,0.45,3,0,1,57
Neutral,1,3,0.6,-1,0,0.483,3,0.6,0,58
Neutral,1,3,0.6,-1,0,0.467,3,0.6,0,59
Neutral,1,3,0.05,1,0,0.483,3,0.05,1,60
Neutral,1,4,0.2,1,0,0.6,3,0.2,1,1
Neutral,1,4,0.2,-1,0,0.533,3,0.2,0,2
Neutral,1,4,0.1,1,0,0.667,3,0.1,1,3
Neutral,1,4,0.4,1,1,0.633,3,0.4,1,4
Neutral,1,4,0.05,1,0,0.633,3,0.05,1,5
Neutral,1,4,0.05,-1,0,0.717,3,0.05,0,6
Neutral,1,4,0.1,1,0,0.683,3,0.1,1,7
Neutral,1,4,0.4,-1,0,0.55,3,0.4,0,8
Neutral,1,4,0.4,-1,0,0.483,3,0.4,0,9
Neutral,1,4,0,1,0,0.567,3,0,1,10
Neutral,1,4,0,1,0,0.617,3,0,1,11
Neutral,1,4,0.6,1,1,0.55,3,0.6,1,12
Neutral,1,4,0.6,1,1,0.533,3,0.6,1,13
Neutral,1,4,0.4,-1,0,0.383,3,0.4,0,14
Neutral,1,4,0.1,-1,0,0.583,3,0.1,0,15
Neutral,1,4,0.05,-1,0,0.483,3,0.05,0,16
Neutral,1,4,0.05,-1,0,0.65,3,0.05,0,17
Neutral,1,4,0,1,0,0.633,3,0,1,18
Neutral,1,4,0.6,1,1,0.45,3,0.6,1,19
Neutral,1,4,0.05,1,0,0.45,3,0.05,1,20
Neutral,1,4,0,-1,0,0.567,3,0,0,21
Neutral,1,4,0.05,1,1,0.617,3,0.05,1,22
Neutral,1,4,0.1,-1,0,0.417,3,0.1,0,23
Neutral,1,4,0.05,-1,1,0.933,3,0.05,0,24
Neutral,1,4,0.4,1,1,0.483,3,0.4,1,25
Neutral,1,4,0.1,1,0,0.617,3,0.1,1,26
Neutral,1,4,0.2,-1,0,0.467,3,0.2,0,27
Neutral,1,4,0.4,1,1,0.484,3,0.4,1,28
Neutral,1,4,0.2,-1,0,0.45,3,0.2,0,29
Neutral,1,4,0.2,-1,0,0.517,3,0.2,0,30
Neutral,1,4,0.4,-1,0,0.467,3,0.4,0,31
Neutral,1,4,0.1,1,1,0.55,3,0.1,1,32
Neutral,1,4,0,1,0,0.717,3,0,1,33
Neutral,1,4,0,-1,0,0.583,3,0,0,34
Neutral,1,4,0.1,-1,0,0.533,3,0.1,0,35
Neutral,1,4,0.1,1,0,0.633,3,0.1,1,36
Neutral,1,4,0.2,1,1,0.533,3,0.2,1,37
Neutral,1,4,0.1,1,1,0.917,3,0.1,1,38
Neutral,1,4,0.2,1,1,0.5,3,0.2,1,39
Neutral,1,4,0.2,1,1,0.417,3,0.2,1,40
Neutral,1,4,0,1,0,0.617,3,0,1,41
Neutral,1,4,0.05,-1,1,0.783,3,0.05,0,42
Neutral,1,4,0.6,-1,0,0.45,3,0.6,0,43
Neutral,1,4,0.4,1,1,0.567,3,0.4,1,44
Neutral,1,4,0.6,-1,0,0.45,3,0.6,0,45
Neutral,1,4,0.6,1,1,0.4,3,0.6,1,46
Neutral,1,4,0.05,1,0,1.07,3,0.05,1,47
Neutral,1,4,0.6,-1,0,0.467,3,0.6,0,48
Neutral,1,4,0.2,1,1,0.55,3,0.2,1,49
Neutral,1,4,0.2,-1,0,0.4,3,0.2,0,50
Neutral,1,4,0.1,-1,1,0.5,3,0.1,0,51
Neutral,1,4,0,-1,0,0.467,3,0,0,52
Neutral,1,4,0.6,1,1,0.417,3,0.6,1,53
Neutral,1,4,0.4,1,1,0.35,3,0.4,1,54
Neutral,1,4,0.05,-1,0,0.417,3,0.05,0,55
Neutral,1,4,0.4,1,1,0.417,3,0.4,1,56
Neutral,1,4,0,1,0,0.383,3,0,1,57
Neutral,1,4,0,1,0,0.467,3,0,1,58
Neutral,1,4,0.6,-1,0,0.383,3,0.6,0,59
Neutral,1,4,0.6,1,1,0.5,3,0.6,1,60
Neutral,1,5,0,-1,1,0.717,3,0,0,1
Neutral,1,5,0.1,1,1,0.767,3,0.1,1,2
Neutral,1,5,0.4,1,1,0.467,3,0.4,1,3
Neutral,1,5,0.2,1,1,0.5,3,0.2,1,4
Neutral,1,5,0.6,1,1,0.533,3,0.6,1,5
Neutral,1,5,0,1,0,0.517,3,0,1,6
Neutral,1,5,0.05,1,0,0.717,3,0.05,1,7
Neutral,1,5,0,-1,0,0.683,3,0,0,8
Neutral,1,5,0.2,1,1,0.6,3,0.2,1,9
Neutral,1,5,0.2,-1,0,0.383,3,0.2,0,10
Neutral,1,5,0.2,-1,0,0.45,3,0.2,0,11
Neutral,1,5,0,-1,0,0.6,3,0,0,12
Neutral,1,5,0.2,1,1,0.5,3,0.2,1,13
Neutral,1,5,0.1,-1,0,0.467,3,0.1,0,14
Neutral,1,5,0.2,1,1,0.467,3,0.2,1,15
Neutral,1,5,0.2,-1,0,0.483,3,0.2,0,16
Neutral,1,5,0.4,1,1,0.417,3,0.4,1,17
Neutral,1,5,0.05,1,0,0.533,3,0.05,1,18
Neutral,1,5,0,-1,1,0.533,3,0,0,19
Neutral,1,5,0.6,-1,0,0.167,3,0.6,0,20
Neutral,1,5,0.1,1,1,0.483,3,0.1,1,21
Neutral,1,5,0.4,1,1,0.284,3,0.4,1,22
Neutral,1,5,0,-1,0,0.367,3,0,0,23
Neutral,1,5,0,1,1,0.6,3,0,1,24
Neutral,1,5,0,1,0,0.7,3,0,1,25
Neutral,1,5,0.05,1,0,0.35,3,0.05,1,26
Neutral,1,5,0.6,1,1,0.267,3,0.6,1,27
Neutral,1,5,0.4,-1,0,0.184,3,0.4,0,28
Neutral,1,5,0.05,-1,0,0.45,3,0.05,0,29
Neutral,1,5,0.4,1,1,0.4,3,0.4,1,30
Neutral,1,5,0.6,1,1,0.383,3,0.6,1,31
Neutral,1,5,0.6,1,1,0.333,3,0.6,1,32
Neutral,1,5,0,1,0,0.467,3,0,1,33
Neutral,1,5,0.1,-1,0,0.35,3,0.1,0,34
Neutral,1,5,0,1,0,0.583,3,0,1,35
Neutral,1,5,0.1,1,0,0.65,3,0.1,1,36
Neutral,1,5,0.6,-1,0,0.45,3,0.6,0,37
Neutral,1,5,0.1,-1,0,0.383,3,0.1,0,38
Neutral,1,5,0.05,-1,1,0.517,3,0.05,0,39
Neutral,1,5,0.1,-1,0,0.35,3,0.1,0,40
Neutral,1,5,0.4,1,1,0.467,3,0.4,1,41
Neutral,1,5,0.1,1,0,0.4,3,0.1,1,42
Neutral,1,5,0.05,-1,0,0.45,3,0.05,0,43
Neutral,1,5,0.05,-1,0,0.617,3,0.05,0,44
Neutral,1,5,0.1,1,1,0.4,3,0.1,1,45
Neutral,1,5,0.2,1,1,0.384,3,0.2,1,46
Neutral,1,5,0.4,1,1,0.367,3,0.4,1,47
Neutral,1,5,0.05,1,0,0.367,3,0.05,1,48
Neutral,1,5,0.1,-1,0,0.433,3,0.1,0,49
Neutral,1,5,0.6,1,1,0.4,3,0.6,1,50
Neutral,1,5,0.05,1,0,0.6,3,0.05,1,51
Neutral,1,5,0.6,-1,0,0.3,3,0.6,0,52
Neutral,1,5,0.4,-1,0,0.367,3,0.4,0,53
Neutral,1,5,0.4,-1,0,0.433,3,0.4,0,54
Neutral,1,5,0.6,1,1,0.35,3,0.6,1,55
Neutral,1,5,0.4,1,1,0.383,3,0.4,1,56
Neutral,1,5,0.2,1,1,0.35,3,0.2,1,57
Neutral,1,5,0.05,1,0,0.583,3,0.05,1,58
Neutral,1,5,0.6,1,1,0.417,3,0.6,1,59
Neutral,1,5,0.2,1,1,0.4,3,0.2,1,60
Neutral,1,6,0,1,0,0.85,3,0,1,1
Neutral,1,6,0.6,1,1,0.617,3,0.6,1,2
Neutral,1,6,0.1,1,0,0.75,3,0.1,1,3
Neutral,1,6,0.05,-1,1,0.617,3,0.05,0,4
Neutral,1,6,0,-1,0,0.55,3,0,0,5
Neutral,1,6,0.4,-1,0,0.433,3,0.4,0,6
Neutral,1,6,0.4,1,1,0.45,3,0.4,1,7
Neutral,1,6,0.2,1,0,0.517,3,0.2,1,8
Neutral,1,6,0.05,1,0,0.583,3,0.05,1,9
Neutral,1,6,0.05,-1,0,0.467,3,0.05,0,10
Neutral,1,6,0.2,-1,0,0.533,3,0.2,0,11
Neutral,1,6,0.1,1,1,0.6,3,0.1,1,12
Neutral,1,6,0.4,-1,0,0.517,3,0.4,0,13
Neutral,1,6,0.6,-1,0,0.433,3,0.6,0,14
Neutral,1,6,0.4,-1,0,0.417,3,0.4,0,15
Neutral,1,6,0,-1,1,0.517,3,0,0,16
Neutral,1,6,0,1,0,0.417,3,0,1,17
Neutral,1,6,0.4,1,1,0.433,3,0.4,1,18
Neutral,1,6,0.2,-1,0,0.367,3,0.2,0,19
Neutral,1,6,0.6,1,1,0.383,3,0.6,1,20
Neutral,1,6,0.2,-1,0,0.417,3,0.2,0,21
Neutral,1,6,0.2,-1,0,0.483,3,0.2,0,22
Neutral,1,6,0,-1,0,0.45,3,0,0,23
Neutral,1,6,0,1,0,0.5,3,0,1,24
Neutral,1,6,0.4,-1,0,0.367,3,0.4,0,25
Neutral,1,6,0.4,1,1,0.4,3,0.4,1,26
Neutral,1,6,0.1,-1,0,0.334,3,0.1,0,27
Neutral,1,6,0.4,-1,0,0.433,3,0.4,0,28
Neutral,1,6,0.6,1,1,0.483,3,0.6,1,29
Neutral,1,6,0.2,-1,0,0.433,3,0.2,0,30
Neutral,1,6,0.1,-1,0,0.433,3,0.1,0,31
Neutral,1,6,0.2,-1,0,0.433,3,0.2,0,32
Neutral,1,6,0,-1,0,0.517,3,0,0,33
Neutral,1,6,0.6,1,1,0.433,3,0.6,1,34
Neutral,1,6,0.05,1,0,0.4,3,0.05,1,35
Neutral,1,6,0.1,-1,0,0.433,3,0.1,0,36
Neutral,1,6,0.05,-1,0,0.4,3,0.05,0,37
Neutral,1,6,0.4,-1,0,0.467,3,0.4,0,38
Neutral,1,6,0.1,-1,0,0.467,3,0.1,0,39
Neutral,1,6,0.05,-1,0,0.45,3,0.05,0,40
Neutral,1,6,0.2,1,1,0.467,3,0.2,1,41
Neutral,1,6,0.05,-1,0,0.45,3,0.05,0,42
Neutral,1,6,0.6,1,1,0.4,3,0.6,1,43
Neutral,1,6,0.4,-1,0,0.367,3,0.4,0,44
Neutral,1,6,0.1,-1,1,0.65,3,0.1,0,45
Neutral,1,6,0.6,1,1,0.45,3,0.6,1,46
Neutral,1,6,0,1,0,0.617,3,0,1,47
Neutral,1,6,0,1,0,0.45,3,0,1,48
Neutral,1,6,0.2,1,1,0.417,3,0.2,1,49
Neutral,1,6,0.2,-1,0,0.333,3,0.2,0,50
Neutral,1,6,0.05,-1,0,0.467,3,0.05,0,51
Neutral,1,6,0.1,1,1,0.533,3,0.1,1,52
Neutral,1,6,0,1,0,0.6,3,0,1,53
Neutral,1,6,0.1,1,0,0.533,3,0.1,1,54
Neutral,1,6,0.05,1,1,0.467,3,0.05,1,55
Neutral,1,6,0.1,1,1,0.517,3,0.1,1,56
Neutral,1,6,0.6,-1,0,0.383,3,0.6,0,57
Neutral,1,6,0.6,1,1,0.45,3,0.6,1,58
Neutral,1,6,0.05,1,0,0.4,3,0.05,1,59
Neutral,1,6,0.6,-1,0,0.417,3,0.6,0,60
Neutral,1,7,0.05,-1,1,0.7,3,0.05,0,1
Neutral,1,7,0.6,-1,0,0.6,3,0.6,0,2
Neutral,1,7,0.6,1,1,0.5,3,0.6,1,3
Neutral,1,7,0,1,0,0.4,3,0,1,4
Neutral,1,7,0,-1,0,0.633,3,0,0,5
Neutral,1,7,0.2,1,1,0.617,3,0.2,1,6
Neutral,1,7,0.6,1,1,0.533,3,0.6,1,7
Neutral,1,7,0.4,-1,0,0.333,3,0.4,0,8
Neutral,1,7,0.6,1,1,0.167,3,0.6,1,9
Neutral,1,7,0,-1,0,0.467,3,0,0,10
Neutral,1,7,0.05,1,0,0.7,3,0.05,1,11
Neutral,1,7,0.05,-1,0,0.517,3,0.05,0,12
Neutral,1,7,0.2,1,1,0.4,3,0.2,1,13
Neutral,1,7,0,-1,0,0.467,3,0,0,14
Neutral,1,7,0.2,-1,0,0.567,3,0.2,0,15
Neutral,1,7,0,-1,0,0.65,3,0,0,16
Neutral,1,7,0.1,-1,0,0.467,3,0.1,0,17
Neutral,1,7,0.4,-1,0,0.517,3,0.4,0,18
Neutral,1,7,0.4,1,1,0.683,3,0.4,1,19
Neutral,1,7,0.1,-1,0,0.467,3,0.1,0,20
Neutral,1,7,0.4,-1,0,0.5,3,0.4,0,21
Neutral,1,7,0.2,1,1,0.433,3,0.2,1,22
Neutral,1,7,0,1,0,0.5,3,0,1,23
Neutral,1,7,0.1,-1,0,0.55,3,0.1,0,24
Neutral,1,7,0,1,0,0.517,3,0,1,25
Neutral,1,7,0.1,1,1,0.567,3,0.1,1,26
Neutral,1,7,0.4,-1,0,0.3,3,0.4,0,27
Neutral,1,7,0.05,-1,0,0.5,3,0.05,0,28
Neutral,1,7,0.2,-1,0,0.483,3,0.2,0,29
Neutral,1,7,0.6,-1,0,0.383,3,0.6,0,30
Neutral,1,7,0.6,-1,0,0.4,3,0.6,0,31
Neutral,1,7,0,-1,0,0.733,3,0,0,32
Neutral,1,7,0,1,0,0.6,3,0,1,33
Neutral,1,7,0.2,1,1,0.567,3,0.2,1,34
Neutral,1,7,0.4,-1,0,0.617,3,0.4,0,35
Neutral,1,7,0.1,-1,0,0.55,3,0.1,0,36
Neutral,1,7,0.6,1,1,0.45,3,0.6,1,37
Neutral,1,7,0.6,1,1,0.433,3,0.6,1,38
Neutral,1,7,0.05,-1,0,0.617,3,0.05,0,39
Neutral,1,7,0.05,-1,0,0.483,3,0.05,0,40
Neutral,1,7,0.2,-1,0,0.467,3,0.2,0,41
Neutral,1,7,0.2,-1,0,0.417,3,0.2,0,42
Neutral,1,7,0.05,1,0,0.533,3,0.05,1,43
Neutral,1,7,0.4,1,1,0.517,3,0.4,1,44
Neutral,1,7,0,-1,1,0.783,3,0,0,45
Neutral,1,7,0.4,1,1,0.533,3,0.4,1,46
